STUDYID,DOMAIN,USUBJID,EGSEQ,EGREFID,EGTESTCD,EGTEST,EGORRES,EGORRESU,EGSTRESC,EGSTRESN,EGSTRESU,EGSTAT,EGMETHOD,EGBLFL,EGEVAL,VISITDY,EGDTC,EGDY,EGTPTREF,EPOCH
CIPA001,EG,CIPA001-A-EL2,1,chipA_ch1_baseline,FPD,FPD,402.8562,ms,402.8562,402.8562,ms,,DERIVED,Y,ALGORITHM,1,2026-03-22,1,BASELINE,BASELINE
CIPA001,EG,CIPA001-A-EL2,2,chipA_ch1_baseline,FPDCF,FPDcF,431.0911,ms,431.0911,431.0911,ms,,DERIVED,Y,ALGORITHM,1,2026-03-22,1,BASELINE,BASELINE
CIPA001,EG,CIPA001-A-EL2,3,chipA_ch1_baseline,BP,Beat Period,818.4749,ms,818.4749,818.4749,ms,,DERIVED,Y,ALGORITHM,1,2026-03-22,1,BASELINE,BASELINE
CIPA001,EG,CIPA001-A-EL2,4,chipA_ch1_baseline,SPIKEAM,Spike Amplitude,114.0610,uV,114.0610,114.061,uV,,DERIVED,Y,ALGORITHM,1,2026-03-22,1,BASELINE,BASELINE
CIPA001,EG,CIPA001-A-EL2,5,chipA_ch1_baseline,FPDCONF,FPD Confidence,0.7495,SCORE,0.7495,0.7495,SCORE,,DERIVED,Y,ALGORITHM,1,2026-03-22,1,BASELINE,BASELINE
CIPA001,EG,CIPA001-A-EL2,6,chipA_ch1_baseline,INTVL,Heart Rate,73.3071,beats/min,73.3071,73.3071,beats/min,,DERIVED,Y,ALGORITHM,1,2026-03-22,1,BASELINE,BASELINE
CIPA001,EG,CIPA001-A-EL2,7,chipA_ch1_baseline,QCGRADE,QC Grade,B,,B,,,,DERIVED,Y,ALGORITHM,1,2026-03-22,1,BASELINE,BASELINE
CIPA001,EG,CIPA001-A-EL2,8,chipA_ch1_baseline,RSKSCR,Arrhythmia Risk Score,0,SCORE,0,0.0,SCORE,,DERIVED,Y,ALGORITHM,1,2026-03-22,1,BASELINE,BASELINE
CIPA001,EG,CIPA001-A-EL2,9,chipA_ch1_baseline,MORPHIN,Morphology Instability,0.2902,SCORE,0.2902,0.2902,SCORE,,DERIVED,Y,ALGORITHM,1,2026-03-22,1,BASELINE,BASELINE
CIPA001,EG,CIPA001-A-EL2,10,chipA_ch1_baseline,EADPCT,EAD Incidence,0.0000,%,0.0000,0.0,%,,DERIVED,Y,ALGORITHM,1,2026-03-22,1,BASELINE,BASELINE
CIPA001,EG,CIPA001-A-EL1,1,chipA_ch1_terfe_1000nM,FPD,FPD,486.8228,ms,486.8228,486.8228,ms,,DERIVED,,ALGORITHM,1,2026-03-22,1,TERFENADINE .1000 nM,TREATMENT
CIPA001,EG,CIPA001-A-EL1,2,chipA_ch1_terfe_1000nM,FPDCF,FPDcF,427.0548,ms,427.0548,427.0548,ms,,DERIVED,,ALGORITHM,1,2026-03-22,1,TERFENADINE .1000 nM,TREATMENT
CIPA001,EG,CIPA001-A-EL1,3,chipA_ch1_terfe_1000nM,BP,Beat Period,1500.4873,ms,1500.4873,1500.4873,ms,,DERIVED,,ALGORITHM,1,2026-03-22,1,TERFENADINE .1000 nM,TREATMENT
CIPA001,EG,CIPA001-A-EL1,4,chipA_ch1_terfe_1000nM,SPIKEAM,Spike Amplitude,136.9943,uV,136.9943,136.9943,uV,,DERIVED,,ALGORITHM,1,2026-03-22,1,TERFENADINE .1000 nM,TREATMENT
CIPA001,EG,CIPA001-A-EL1,5,chipA_ch1_terfe_1000nM,FPDCONF,FPD Confidence,0.8796,SCORE,0.8796,0.8796,SCORE,,DERIVED,,ALGORITHM,1,2026-03-22,1,TERFENADINE .1000 nM,TREATMENT
CIPA001,EG,CIPA001-A-EL1,6,chipA_ch1_terfe_1000nM,INTVL,Heart Rate,39.9870,beats/min,39.9870,39.987,beats/min,,DERIVED,,ALGORITHM,1,2026-03-22,1,TERFENADINE .1000 nM,TREATMENT
CIPA001,EG,CIPA001-A-EL1,7,chipA_ch1_terfe_1000nM,QCGRADE,QC Grade,B,,B,,,,DERIVED,,ALGORITHM,1,2026-03-22,1,TERFENADINE .1000 nM,TREATMENT
CIPA001,EG,CIPA001-A-EL1,8,chipA_ch1_terfe_1000nM,FPDCFPC,FPDcF Pct Change,-0.9363,%,-0.9363,-0.9363,%,,DERIVED,,ALGORITHM,1,2026-03-22,1,TERFENADINE .1000 nM,TREATMENT
CIPA001,EG,CIPA001-A-EL1,9,chipA_ch1_terfe_1000nM,BPPCT,Beat Period Pct Change,83.3272,%,83.3272,83.3272,%,,DERIVED,,ALGORITHM,1,2026-03-22,1,TERFENADINE .1000 nM,TREATMENT
CIPA001,EG,CIPA001-A-EL1,10,chipA_ch1_terfe_1000nM,AMPPCT,Amplitude Pct Change,20.1062,%,20.1062,20.1062,%,,DERIVED,,ALGORITHM,1,2026-03-22,1,TERFENADINE .1000 nM,TREATMENT
CIPA001,EG,CIPA001-A-EL1,11,chipA_ch1_terfe_1000nM,TDPSCR,TdP Risk Score,0,SCORE,0,0.0,SCORE,,DERIVED,,ALGORITHM,1,2026-03-22,1,TERFENADINE .1000 nM,TREATMENT
CIPA001,EG,CIPA001-A-EL1,12,chipA_ch1_terfe_1000nM,SPECCHG,Spectral Change,0.4632,SCORE,0.4632,0.4632,SCORE,,DERIVED,,ALGORITHM,1,2026-03-22,1,TERFENADINE .1000 nM,TREATMENT
CIPA001,EG,CIPA001-A-EL1,13,chipA_ch1_terfe_1000nM,RSKSCR,Arrhythmia Risk Score,19,SCORE,19,19.0,SCORE,,DERIVED,,ALGORITHM,1,2026-03-22,1,TERFENADINE .1000 nM,TREATMENT
CIPA001,EG,CIPA001-A-EL1,14,chipA_ch1_terfe_1000nM,MORPHIN,Morphology Instability,0.1731,SCORE,0.1731,0.1731,SCORE,,DERIVED,,ALGORITHM,1,2026-03-22,1,TERFENADINE .1000 nM,TREATMENT
CIPA001,EG,CIPA001-A-EL1,15,chipA_ch1_terfe_1000nM,EADPCT,EAD Incidence,0.0000,%,0.0000,0.0,%,,DERIVED,,ALGORITHM,1,2026-03-22,1,TERFENADINE .1000 nM,TREATMENT
CIPA001,EG,CIPA001-A-EL1,16,chipA_ch1_terfe_100nM,FPD,FPD,629.0088,ms,629.0088,629.0088,ms,,DERIVED,,ALGORITHM,2,2026-03-22,1,TERFENADINE .100 nM,TREATMENT
CIPA001,EG,CIPA001-A-EL1,17,chipA_ch1_terfe_100nM,FPDCF,FPDcF,548.3784,ms,548.3784,548.3784,ms,,DERIVED,,ALGORITHM,2,2026-03-22,1,TERFENADINE .100 nM,TREATMENT
CIPA001,EG,CIPA001-A-EL1,18,chipA_ch1_terfe_100nM,BP,Beat Period,1577.3363,ms,1577.3363,1577.3363,ms,,DERIVED,,ALGORITHM,2,2026-03-22,1,TERFENADINE .100 nM,TREATMENT
CIPA001,EG,CIPA001-A-EL1,19,chipA_ch1_terfe_100nM,SPIKEAM,Spike Amplitude,288.5905,uV,288.5905,288.5905,uV,,DERIVED,,ALGORITHM,2,2026-03-22,1,TERFENADINE .100 nM,TREATMENT
CIPA001,EG,CIPA001-A-EL1,20,chipA_ch1_terfe_100nM,FPDCONF,FPD Confidence,0.7885,SCORE,0.7885,0.7885,SCORE,,DERIVED,,ALGORITHM,2,2026-03-22,1,TERFENADINE .100 nM,TREATMENT
CIPA001,EG,CIPA001-A-EL1,21,chipA_ch1_terfe_100nM,INTVL,Heart Rate,38.0388,beats/min,38.0388,38.0388,beats/min,,DERIVED,,ALGORITHM,2,2026-03-22,1,TERFENADINE .100 nM,TREATMENT
CIPA001,EG,CIPA001-A-EL1,22,chipA_ch1_terfe_100nM,QCGRADE,QC Grade,B,,B,,,,DERIVED,,ALGORITHM,2,2026-03-22,1,TERFENADINE .100 nM,TREATMENT
CIPA001,EG,CIPA001-A-EL1,23,chipA_ch1_terfe_100nM,FPDCFPC,FPDcF Pct Change,27.2071,%,27.2071,27.2071,%,,DERIVED,,ALGORITHM,2,2026-03-22,1,TERFENADINE .100 nM,TREATMENT
CIPA001,EG,CIPA001-A-EL1,24,chipA_ch1_terfe_100nM,BPPCT,Beat Period Pct Change,92.7165,%,92.7165,92.7165,%,,DERIVED,,ALGORITHM,2,2026-03-22,1,TERFENADINE .100 nM,TREATMENT
CIPA001,EG,CIPA001-A-EL1,25,chipA_ch1_terfe_100nM,AMPPCT,Amplitude Pct Change,153.0141,%,153.0141,153.0141,%,,DERIVED,,ALGORITHM,2,2026-03-22,1,TERFENADINE .100 nM,TREATMENT
CIPA001,EG,CIPA001-A-EL1,26,chipA_ch1_terfe_100nM,TDPSCR,TdP Risk Score,3,SCORE,3,3.0,SCORE,,DERIVED,,ALGORITHM,2,2026-03-22,1,TERFENADINE .100 nM,TREATMENT
CIPA001,EG,CIPA001-A-EL1,27,chipA_ch1_terfe_100nM,SPECCHG,Spectral Change,0.5117,SCORE,0.5117,0.5117,SCORE,,DERIVED,,ALGORITHM,2,2026-03-22,1,TERFENADINE .100 nM,TREATMENT
CIPA001,EG,CIPA001-A-EL1,28,chipA_ch1_terfe_100nM,RSKSCR,Arrhythmia Risk Score,32,SCORE,32,32.0,SCORE,,DERIVED,,ALGORITHM,2,2026-03-22,1,TERFENADINE .100 nM,TREATMENT
CIPA001,EG,CIPA001-A-EL1,29,chipA_ch1_terfe_100nM,MORPHIN,Morphology Instability,0.1831,SCORE,0.1831,0.1831,SCORE,,DERIVED,,ALGORITHM,2,2026-03-22,1,TERFENADINE .100 nM,TREATMENT
CIPA001,EG,CIPA001-A-EL1,30,chipA_ch1_terfe_100nM,EADPCT,EAD Incidence,0.8850,%,0.8850,0.885,%,,DERIVED,,ALGORITHM,2,2026-03-22,1,TERFENADINE .100 nM,TREATMENT
CIPA001,EG,CIPA001-A-EL1,31,chipA_ch1_terfe_10nM,FPD,FPD,620.4261,ms,620.4261,620.4261,ms,,DERIVED,,ALGORITHM,3,2026-03-22,1,TERFENADINE .10 nM,TREATMENT
CIPA001,EG,CIPA001-A-EL1,32,chipA_ch1_terfe_10nM,FPDCF,FPDcF,522.3225,ms,522.3225,522.3225,ms,,DERIVED,,ALGORITHM,3,2026-03-22,1,TERFENADINE .10 nM,TREATMENT
CIPA001,EG,CIPA001-A-EL1,33,chipA_ch1_terfe_10nM,BP,Beat Period,2010.5341,ms,2010.5341,2010.5341,ms,,DERIVED,,ALGORITHM,3,2026-03-22,1,TERFENADINE .10 nM,TREATMENT
CIPA001,EG,CIPA001-A-EL1,34,chipA_ch1_terfe_10nM,SPIKEAM,Spike Amplitude,302.2649,uV,302.2649,302.2649,uV,,DERIVED,,ALGORITHM,3,2026-03-22,1,TERFENADINE .10 nM,TREATMENT
CIPA001,EG,CIPA001-A-EL1,35,chipA_ch1_terfe_10nM,FPDCONF,FPD Confidence,0.7846,SCORE,0.7846,0.7846,SCORE,,DERIVED,,ALGORITHM,3,2026-03-22,1,TERFENADINE .10 nM,TREATMENT
CIPA001,EG,CIPA001-A-EL1,36,chipA_ch1_terfe_10nM,INTVL,Heart Rate,29.8428,beats/min,29.8428,29.8428,beats/min,,DERIVED,,ALGORITHM,3,2026-03-22,1,TERFENADINE .10 nM,TREATMENT
CIPA001,EG,CIPA001-A-EL1,37,chipA_ch1_terfe_10nM,QCGRADE,QC Grade,C,,C,,,,DERIVED,,ALGORITHM,3,2026-03-22,1,TERFENADINE .10 nM,TREATMENT
CIPA001,EG,CIPA001-A-EL1,38,chipA_ch1_terfe_10nM,FPDCFPC,FPDcF Pct Change,21.1629,%,21.1629,21.1629,%,,DERIVED,,ALGORITHM,3,2026-03-22,1,TERFENADINE .10 nM,TREATMENT
CIPA001,EG,CIPA001-A-EL1,39,chipA_ch1_terfe_10nM,BPPCT,Beat Period Pct Change,145.6440,%,145.6440,145.644,%,,DERIVED,,ALGORITHM,3,2026-03-22,1,TERFENADINE .10 nM,TREATMENT
CIPA001,EG,CIPA001-A-EL1,40,chipA_ch1_terfe_10nM,AMPPCT,Amplitude Pct Change,165.0028,%,165.0028,165.0028,%,,DERIVED,,ALGORITHM,3,2026-03-22,1,TERFENADINE .10 nM,TREATMENT
CIPA001,EG,CIPA001-A-EL1,41,chipA_ch1_terfe_10nM,TDPSCR,TdP Risk Score,3,SCORE,3,3.0,SCORE,,DERIVED,,ALGORITHM,3,2026-03-22,1,TERFENADINE .10 nM,TREATMENT
CIPA001,EG,CIPA001-A-EL1,42,chipA_ch1_terfe_10nM,SPECCHG,Spectral Change,0.4798,SCORE,0.4798,0.4798,SCORE,,DERIVED,,ALGORITHM,3,2026-03-22,1,TERFENADINE .10 nM,TREATMENT
CIPA001,EG,CIPA001-A-EL1,43,chipA_ch1_terfe_10nM,RSKSCR,Arrhythmia Risk Score,35,SCORE,35,35.0,SCORE,,DERIVED,,ALGORITHM,3,2026-03-22,1,TERFENADINE .10 nM,TREATMENT
CIPA001,EG,CIPA001-A-EL1,44,chipA_ch1_terfe_10nM,MORPHIN,Morphology Instability,0.1783,SCORE,0.1783,0.1783,SCORE,,DERIVED,,ALGORITHM,3,2026-03-22,1,TERFENADINE .10 nM,TREATMENT
CIPA001,EG,CIPA001-A-EL1,45,chipA_ch1_terfe_10nM,EADPCT,EAD Incidence,1.1364,%,1.1364,1.1364,%,,DERIVED,,ALGORITHM,3,2026-03-22,1,TERFENADINE .10 nM,TREATMENT
CIPA001,EG,CIPA001-A-EL1,46,chipA_ch1_terfe_1nM,FPD,FPD,539.5956,ms,539.5956,539.5956,ms,,DERIVED,,ALGORITHM,4,2026-03-22,1,TERFENADINE .1 nM,TREATMENT
CIPA001,EG,CIPA001-A-EL1,47,chipA_ch1_terfe_1nM,FPDCF,FPDcF,494.8041,ms,494.8041,494.8041,ms,,DERIVED,,ALGORITHM,4,2026-03-22,1,TERFENADINE .1 nM,TREATMENT
CIPA001,EG,CIPA001-A-EL1,48,chipA_ch1_terfe_1nM,BP,Beat Period,1317.8713,ms,1317.8713,1317.8713,ms,,DERIVED,,ALGORITHM,4,2026-03-22,1,TERFENADINE .1 nM,TREATMENT
CIPA001,EG,CIPA001-A-EL1,49,chipA_ch1_terfe_1nM,SPIKEAM,Spike Amplitude,179.0006,uV,179.0006,179.0006,uV,,DERIVED,,ALGORITHM,4,2026-03-22,1,TERFENADINE .1 nM,TREATMENT
CIPA001,EG,CIPA001-A-EL1,50,chipA_ch1_terfe_1nM,FPDCONF,FPD Confidence,0.8651,SCORE,0.8651,0.8651,SCORE,,DERIVED,,ALGORITHM,4,2026-03-22,1,TERFENADINE .1 nM,TREATMENT
CIPA001,EG,CIPA001-A-EL1,51,chipA_ch1_terfe_1nM,INTVL,Heart Rate,45.5280,beats/min,45.5280,45.528,beats/min,,DERIVED,,ALGORITHM,4,2026-03-22,1,TERFENADINE .1 nM,TREATMENT
CIPA001,EG,CIPA001-A-EL1,52,chipA_ch1_terfe_1nM,QCGRADE,QC Grade,B,,B,,,,DERIVED,,ALGORITHM,4,2026-03-22,1,TERFENADINE .1 nM,TREATMENT
CIPA001,EG,CIPA001-A-EL1,53,chipA_ch1_terfe_1nM,FPDCFPC,FPDcF Pct Change,14.7795,%,14.7795,14.7795,%,,DERIVED,,ALGORITHM,4,2026-03-22,1,TERFENADINE .1 nM,TREATMENT
CIPA001,EG,CIPA001-A-EL1,54,chipA_ch1_terfe_1nM,BPPCT,Beat Period Pct Change,61.0155,%,61.0155,61.0155,%,,DERIVED,,ALGORITHM,4,2026-03-22,1,TERFENADINE .1 nM,TREATMENT
CIPA001,EG,CIPA001-A-EL1,55,chipA_ch1_terfe_1nM,AMPPCT,Amplitude Pct Change,56.9340,%,56.9340,56.934,%,,DERIVED,,ALGORITHM,4,2026-03-22,1,TERFENADINE .1 nM,TREATMENT
CIPA001,EG,CIPA001-A-EL1,56,chipA_ch1_terfe_1nM,TDPSCR,TdP Risk Score,1,SCORE,1,1.0,SCORE,,DERIVED,,ALGORITHM,4,2026-03-22,1,TERFENADINE .1 nM,TREATMENT
CIPA001,EG,CIPA001-A-EL1,57,chipA_ch1_terfe_1nM,SPECCHG,Spectral Change,0.4925,SCORE,0.4925,0.4925,SCORE,,DERIVED,,ALGORITHM,4,2026-03-22,1,TERFENADINE .1 nM,TREATMENT
CIPA001,EG,CIPA001-A-EL1,58,chipA_ch1_terfe_1nM,RSKSCR,Arrhythmia Risk Score,29,SCORE,29,29.0,SCORE,,DERIVED,,ALGORITHM,4,2026-03-22,1,TERFENADINE .1 nM,TREATMENT
CIPA001,EG,CIPA001-A-EL1,59,chipA_ch1_terfe_1nM,MORPHIN,Morphology Instability,0.2380,SCORE,0.2380,0.238,SCORE,,DERIVED,,ALGORITHM,4,2026-03-22,1,TERFENADINE .1 nM,TREATMENT
CIPA001,EG,CIPA001-A-EL1,60,chipA_ch1_terfe_1nM,EADPCT,EAD Incidence,0.0000,%,0.0000,0.0,%,,DERIVED,,ALGORITHM,4,2026-03-22,1,TERFENADINE .1 nM,TREATMENT
CIPA001,EG,CIPA001-A-EL1,61,chipA_ch1_terfe_300nM,FPD,FPD,498.9688,ms,498.9688,498.9688,ms,,DERIVED,,ALGORITHM,5,2026-03-22,1,TERFENADINE .300 nM,TREATMENT
CIPA001,EG,CIPA001-A-EL1,62,chipA_ch1_terfe_300nM,FPDCF,FPDcF,427.8705,ms,427.8705,427.8705,ms,,DERIVED,,ALGORITHM,5,2026-03-22,1,TERFENADINE .300 nM,TREATMENT
CIPA001,EG,CIPA001-A-EL1,63,chipA_ch1_terfe_300nM,BP,Beat Period,1882.3474,ms,1882.3474,1882.3474,ms,,DERIVED,,ALGORITHM,5,2026-03-22,1,TERFENADINE .300 nM,TREATMENT
CIPA001,EG,CIPA001-A-EL1,64,chipA_ch1_terfe_300nM,SPIKEAM,Spike Amplitude,404.4932,uV,404.4932,404.4932,uV,,DERIVED,,ALGORITHM,5,2026-03-22,1,TERFENADINE .300 nM,TREATMENT
CIPA001,EG,CIPA001-A-EL1,65,chipA_ch1_terfe_300nM,FPDCONF,FPD Confidence,0.8193,SCORE,0.8193,0.8193,SCORE,,DERIVED,,ALGORITHM,5,2026-03-22,1,TERFENADINE .300 nM,TREATMENT
CIPA001,EG,CIPA001-A-EL1,66,chipA_ch1_terfe_300nM,INTVL,Heart Rate,31.8751,beats/min,31.8751,31.8751,beats/min,,DERIVED,,ALGORITHM,5,2026-03-22,1,TERFENADINE .300 nM,TREATMENT
CIPA001,EG,CIPA001-A-EL1,67,chipA_ch1_terfe_300nM,QCGRADE,QC Grade,C,,C,,,,DERIVED,,ALGORITHM,5,2026-03-22,1,TERFENADINE .300 nM,TREATMENT
CIPA001,EG,CIPA001-A-EL1,68,chipA_ch1_terfe_300nM,FPDCFPC,FPDcF Pct Change,-0.7471,%,-0.7471,-0.7471,%,,DERIVED,,ALGORITHM,5,2026-03-22,1,TERFENADINE .300 nM,TREATMENT
CIPA001,EG,CIPA001-A-EL1,69,chipA_ch1_terfe_300nM,BPPCT,Beat Period Pct Change,129.9823,%,129.9823,129.9823,%,,DERIVED,,ALGORITHM,5,2026-03-22,1,TERFENADINE .300 nM,TREATMENT
CIPA001,EG,CIPA001-A-EL1,70,chipA_ch1_terfe_300nM,AMPPCT,Amplitude Pct Change,254.6287,%,254.6287,254.6287,%,,DERIVED,,ALGORITHM,5,2026-03-22,1,TERFENADINE .300 nM,TREATMENT
CIPA001,EG,CIPA001-A-EL1,71,chipA_ch1_terfe_300nM,TDPSCR,TdP Risk Score,0,SCORE,0,0.0,SCORE,,DERIVED,,ALGORITHM,5,2026-03-22,1,TERFENADINE .300 nM,TREATMENT
CIPA001,EG,CIPA001-A-EL1,72,chipA_ch1_terfe_300nM,SPECCHG,Spectral Change,0.5417,SCORE,0.5417,0.5417,SCORE,,DERIVED,,ALGORITHM,5,2026-03-22,1,TERFENADINE .300 nM,TREATMENT
CIPA001,EG,CIPA001-A-EL1,73,chipA_ch1_terfe_300nM,RSKSCR,Arrhythmia Risk Score,16,SCORE,16,16.0,SCORE,,DERIVED,,ALGORITHM,5,2026-03-22,1,TERFENADINE .300 nM,TREATMENT
CIPA001,EG,CIPA001-A-EL1,74,chipA_ch1_terfe_300nM,MORPHIN,Morphology Instability,0.2371,SCORE,0.2371,0.2371,SCORE,,DERIVED,,ALGORITHM,5,2026-03-22,1,TERFENADINE .300 nM,TREATMENT
CIPA001,EG,CIPA001-A-EL1,75,chipA_ch1_terfe_300nM,EADPCT,EAD Incidence,0.0000,%,0.0000,0.0,%,,DERIVED,,ALGORITHM,5,2026-03-22,1,TERFENADINE .300 nM,TREATMENT
CIPA001,EG,CIPA001-A-EL1,76,chipA_ch1_terfe_8nM,FPD,FPD,527.2586,ms,527.2586,527.2586,ms,,DERIVED,,ALGORITHM,6,2026-03-22,1,TERFENADINE .8 nM,TREATMENT
CIPA001,EG,CIPA001-A-EL1,77,chipA_ch1_terfe_8nM,FPDCF,FPDcF,458.1275,ms,458.1275,458.1275,ms,,DERIVED,,ALGORITHM,6,2026-03-22,1,TERFENADINE .8 nM,TREATMENT
CIPA001,EG,CIPA001-A-EL1,78,chipA_ch1_terfe_8nM,BP,Beat Period,1542.4310,ms,1542.4310,1542.431,ms,,DERIVED,,ALGORITHM,6,2026-03-22,1,TERFENADINE .8 nM,TREATMENT
CIPA001,EG,CIPA001-A-EL1,79,chipA_ch1_terfe_8nM,SPIKEAM,Spike Amplitude,427.3636,uV,427.3636,427.3636,uV,,DERIVED,,ALGORITHM,6,2026-03-22,1,TERFENADINE .8 nM,TREATMENT
CIPA001,EG,CIPA001-A-EL1,80,chipA_ch1_terfe_8nM,FPDCONF,FPD Confidence,0.8942,SCORE,0.8942,0.8942,SCORE,,DERIVED,,ALGORITHM,6,2026-03-22,1,TERFENADINE .8 nM,TREATMENT
CIPA001,EG,CIPA001-A-EL1,81,chipA_ch1_terfe_8nM,INTVL,Heart Rate,38.8996,beats/min,38.8996,38.8996,beats/min,,DERIVED,,ALGORITHM,6,2026-03-22,1,TERFENADINE .8 nM,TREATMENT
CIPA001,EG,CIPA001-A-EL1,82,chipA_ch1_terfe_8nM,QCGRADE,QC Grade,B,,B,,,,DERIVED,,ALGORITHM,6,2026-03-22,1,TERFENADINE .8 nM,TREATMENT
CIPA001,EG,CIPA001-A-EL1,83,chipA_ch1_terfe_8nM,FPDCFPC,FPDcF Pct Change,6.2716,%,6.2716,6.2716,%,,DERIVED,,ALGORITHM,6,2026-03-22,1,TERFENADINE .8 nM,TREATMENT
CIPA001,EG,CIPA001-A-EL1,84,chipA_ch1_terfe_8nM,BPPCT,Beat Period Pct Change,88.4518,%,88.4518,88.4518,%,,DERIVED,,ALGORITHM,6,2026-03-22,1,TERFENADINE .8 nM,TREATMENT
CIPA001,EG,CIPA001-A-EL1,85,chipA_ch1_terfe_8nM,AMPPCT,Amplitude Pct Change,274.6797,%,274.6797,274.6797,%,,DERIVED,,ALGORITHM,6,2026-03-22,1,TERFENADINE .8 nM,TREATMENT
CIPA001,EG,CIPA001-A-EL1,86,chipA_ch1_terfe_8nM,TDPSCR,TdP Risk Score,0,SCORE,0,0.0,SCORE,,DERIVED,,ALGORITHM,6,2026-03-22,1,TERFENADINE .8 nM,TREATMENT
CIPA001,EG,CIPA001-A-EL1,87,chipA_ch1_terfe_8nM,SPECCHG,Spectral Change,0.3467,SCORE,0.3467,0.3467,SCORE,,DERIVED,,ALGORITHM,6,2026-03-22,1,TERFENADINE .8 nM,TREATMENT
CIPA001,EG,CIPA001-A-EL1,88,chipA_ch1_terfe_8nM,RSKSCR,Arrhythmia Risk Score,17,SCORE,17,17.0,SCORE,,DERIVED,,ALGORITHM,6,2026-03-22,1,TERFENADINE .8 nM,TREATMENT
CIPA001,EG,CIPA001-A-EL1,89,chipA_ch1_terfe_8nM,MORPHIN,Morphology Instability,0.2660,SCORE,0.2660,0.266,SCORE,,DERIVED,,ALGORITHM,6,2026-03-22,1,TERFENADINE .8 nM,TREATMENT
CIPA001,EG,CIPA001-A-EL1,90,chipA_ch1_terfe_8nM,EADPCT,EAD Incidence,2.5862,%,2.5862,2.5862,%,,DERIVED,,ALGORITHM,6,2026-03-22,1,TERFENADINE .8 nM,TREATMENT
CIPA001,EG,CIPA001-A-EL2,11,chipA_ch2_quinidine0_06uM,FPD,FPD,736.6905,ms,736.6905,736.6905,ms,,DERIVED,,ALGORITHM,2,2026-03-22,1,QUINIDINE 0.06 uM,TREATMENT
CIPA001,EG,CIPA001-A-EL2,12,chipA_ch2_quinidine0_06uM,FPDCF,FPDcF,525.5959,ms,525.5959,525.5959,ms,,DERIVED,,ALGORITHM,2,2026-03-22,1,QUINIDINE 0.06 uM,TREATMENT
CIPA001,EG,CIPA001-A-EL2,13,chipA_ch2_quinidine0_06uM,BP,Beat Period,2831.5000,ms,2831.5000,2831.5,ms,,DERIVED,,ALGORITHM,2,2026-03-22,1,QUINIDINE 0.06 uM,TREATMENT
CIPA001,EG,CIPA001-A-EL2,14,chipA_ch2_quinidine0_06uM,SPIKEAM,Spike Amplitude,666.6860,uV,666.6860,666.686,uV,,DERIVED,,ALGORITHM,2,2026-03-22,1,QUINIDINE 0.06 uM,TREATMENT
CIPA001,EG,CIPA001-A-EL2,15,chipA_ch2_quinidine0_06uM,FPDCONF,FPD Confidence,0.8639,SCORE,0.8639,0.8639,SCORE,,DERIVED,,ALGORITHM,2,2026-03-22,1,QUINIDINE 0.06 uM,TREATMENT
CIPA001,EG,CIPA001-A-EL2,16,chipA_ch2_quinidine0_06uM,INTVL,Heart Rate,21.1902,beats/min,21.1902,21.1902,beats/min,,DERIVED,,ALGORITHM,2,2026-03-22,1,QUINIDINE 0.06 uM,TREATMENT
CIPA001,EG,CIPA001-A-EL2,17,chipA_ch2_quinidine0_06uM,QCGRADE,QC Grade,A,,A,,,,DERIVED,,ALGORITHM,2,2026-03-22,1,QUINIDINE 0.06 uM,TREATMENT
CIPA001,EG,CIPA001-A-EL2,18,chipA_ch2_quinidine0_06uM,FPDCFPC,FPDcF Pct Change,1.8305,%,1.8305,1.8305,%,,DERIVED,,ALGORITHM,2,2026-03-22,1,QUINIDINE 0.06 uM,TREATMENT
CIPA001,EG,CIPA001-A-EL2,19,chipA_ch2_quinidine0_06uM,BPPCT,Beat Period Pct Change,22.3975,%,22.3975,22.3975,%,,DERIVED,,ALGORITHM,2,2026-03-22,1,QUINIDINE 0.06 uM,TREATMENT
CIPA001,EG,CIPA001-A-EL2,20,chipA_ch2_quinidine0_06uM,AMPPCT,Amplitude Pct Change,-9.4042,%,-9.4042,-9.4042,%,,DERIVED,,ALGORITHM,2,2026-03-22,1,QUINIDINE 0.06 uM,TREATMENT
CIPA001,EG,CIPA001-A-EL2,21,chipA_ch2_quinidine0_06uM,TDPSCR,TdP Risk Score,0,SCORE,0,0.0,SCORE,,DERIVED,,ALGORITHM,2,2026-03-22,1,QUINIDINE 0.06 uM,TREATMENT
CIPA001,EG,CIPA001-A-EL2,22,chipA_ch2_quinidine0_06uM,SPECCHG,Spectral Change,0.2235,SCORE,0.2235,0.2235,SCORE,,DERIVED,,ALGORITHM,2,2026-03-22,1,QUINIDINE 0.06 uM,TREATMENT
CIPA001,EG,CIPA001-A-EL2,23,chipA_ch2_quinidine0_06uM,RSKSCR,Arrhythmia Risk Score,39,SCORE,39,39.0,SCORE,,DERIVED,,ALGORITHM,2,2026-03-22,1,QUINIDINE 0.06 uM,TREATMENT
CIPA001,EG,CIPA001-A-EL2,24,chipA_ch2_quinidine0_06uM,MORPHIN,Morphology Instability,0.6407,SCORE,0.6407,0.6407,SCORE,,DERIVED,,ALGORITHM,2,2026-03-22,1,QUINIDINE 0.06 uM,TREATMENT
CIPA001,EG,CIPA001-A-EL2,25,chipA_ch2_quinidine0_06uM,EADPCT,EAD Incidence,0.0000,%,0.0000,0.0,%,,DERIVED,,ALGORITHM,2,2026-03-22,1,QUINIDINE 0.06 uM,TREATMENT
CIPA001,EG,CIPA001-A-EL2,26,chipA_ch2_quinidine0_1uM,FPD,FPD,718.3333,ms,718.3333,718.3333,ms,,DERIVED,,ALGORITHM,3,2026-03-22,1,QUINIDINE 0.1 uM,TREATMENT
CIPA001,EG,CIPA001-A-EL2,27,chipA_ch2_quinidine0_1uM,FPDCF,FPDcF,492.9922,ms,492.9922,492.9922,ms,,DERIVED,,ALGORITHM,3,2026-03-22,1,QUINIDINE 0.1 uM,TREATMENT
CIPA001,EG,CIPA001-A-EL2,28,chipA_ch2_quinidine0_1uM,BP,Beat Period,3178.4286,ms,3178.4286,3178.4286,ms,,DERIVED,,ALGORITHM,3,2026-03-22,1,QUINIDINE 0.1 uM,TREATMENT
CIPA001,EG,CIPA001-A-EL2,29,chipA_ch2_quinidine0_1uM,SPIKEAM,Spike Amplitude,597.9024,uV,597.9024,597.9024,uV,,DERIVED,,ALGORITHM,3,2026-03-22,1,QUINIDINE 0.1 uM,TREATMENT
CIPA001,EG,CIPA001-A-EL2,30,chipA_ch2_quinidine0_1uM,FPDCONF,FPD Confidence,0.8589,SCORE,0.8589,0.8589,SCORE,,DERIVED,,ALGORITHM,3,2026-03-22,1,QUINIDINE 0.1 uM,TREATMENT
CIPA001,EG,CIPA001-A-EL2,31,chipA_ch2_quinidine0_1uM,INTVL,Heart Rate,18.8773,beats/min,18.8773,18.8773,beats/min,,DERIVED,,ALGORITHM,3,2026-03-22,1,QUINIDINE 0.1 uM,TREATMENT
CIPA001,EG,CIPA001-A-EL2,32,chipA_ch2_quinidine0_1uM,QCGRADE,QC Grade,A,,A,,,,DERIVED,,ALGORITHM,3,2026-03-22,1,QUINIDINE 0.1 uM,TREATMENT
CIPA001,EG,CIPA001-A-EL2,33,chipA_ch2_quinidine0_1uM,FPDCFPC,FPDcF Pct Change,-4.4862,%,-4.4862,-4.4862,%,,DERIVED,,ALGORITHM,3,2026-03-22,1,QUINIDINE 0.1 uM,TREATMENT
CIPA001,EG,CIPA001-A-EL2,34,chipA_ch2_quinidine0_1uM,BPPCT,Beat Period Pct Change,37.3942,%,37.3942,37.3942,%,,DERIVED,,ALGORITHM,3,2026-03-22,1,QUINIDINE 0.1 uM,TREATMENT
CIPA001,EG,CIPA001-A-EL2,35,chipA_ch2_quinidine0_1uM,AMPPCT,Amplitude Pct Change,-18.7512,%,-18.7512,-18.7512,%,,DERIVED,,ALGORITHM,3,2026-03-22,1,QUINIDINE 0.1 uM,TREATMENT
CIPA001,EG,CIPA001-A-EL2,36,chipA_ch2_quinidine0_1uM,TDPSCR,TdP Risk Score,0,SCORE,0,0.0,SCORE,,DERIVED,,ALGORITHM,3,2026-03-22,1,QUINIDINE 0.1 uM,TREATMENT
CIPA001,EG,CIPA001-A-EL2,37,chipA_ch2_quinidine0_1uM,SPECCHG,Spectral Change,0.3705,SCORE,0.3705,0.3705,SCORE,,DERIVED,,ALGORITHM,3,2026-03-22,1,QUINIDINE 0.1 uM,TREATMENT
CIPA001,EG,CIPA001-A-EL2,38,chipA_ch2_quinidine0_1uM,RSKSCR,Arrhythmia Risk Score,29,SCORE,29,29.0,SCORE,,DERIVED,,ALGORITHM,3,2026-03-22,1,QUINIDINE 0.1 uM,TREATMENT
CIPA001,EG,CIPA001-A-EL2,39,chipA_ch2_quinidine0_1uM,MORPHIN,Morphology Instability,0.8150,SCORE,0.8150,0.815,SCORE,,DERIVED,,ALGORITHM,3,2026-03-22,1,QUINIDINE 0.1 uM,TREATMENT
CIPA001,EG,CIPA001-A-EL2,40,chipA_ch2_quinidine0_1uM,EADPCT,EAD Incidence,0.0000,%,0.0000,0.0,%,,DERIVED,,ALGORITHM,3,2026-03-22,1,QUINIDINE 0.1 uM,TREATMENT
CIPA001,EG,CIPA001-A-EL2,41,chipA_ch2_quinidine10uM,FPD,FPD,258.2054,ms,258.2054,258.2054,ms,,DERIVED,,ALGORITHM,4,2026-03-22,1,QUINIDINE 10 uM,TREATMENT
CIPA001,EG,CIPA001-A-EL2,42,chipA_ch2_quinidine10uM,FPDCF,FPDcF,221.6904,ms,221.6904,221.6904,ms,,DERIVED,,ALGORITHM,4,2026-03-22,1,QUINIDINE 10 uM,TREATMENT
CIPA001,EG,CIPA001-A-EL2,43,chipA_ch2_quinidine10uM,BP,Beat Period,1600.7366,ms,1600.7366,1600.7366,ms,,DERIVED,,ALGORITHM,4,2026-03-22,1,QUINIDINE 10 uM,TREATMENT
CIPA001,EG,CIPA001-A-EL2,44,chipA_ch2_quinidine10uM,SPIKEAM,Spike Amplitude,518.6375,uV,518.6375,518.6375,uV,,DERIVED,,ALGORITHM,4,2026-03-22,1,QUINIDINE 10 uM,TREATMENT
CIPA001,EG,CIPA001-A-EL2,45,chipA_ch2_quinidine10uM,FPDCONF,FPD Confidence,0.6938,SCORE,0.6938,0.6938,SCORE,,DERIVED,,ALGORITHM,4,2026-03-22,1,QUINIDINE 10 uM,TREATMENT
CIPA001,EG,CIPA001-A-EL2,46,chipA_ch2_quinidine10uM,INTVL,Heart Rate,37.4827,beats/min,37.4827,37.4827,beats/min,,DERIVED,,ALGORITHM,4,2026-03-22,1,QUINIDINE 10 uM,TREATMENT
CIPA001,EG,CIPA001-A-EL2,47,chipA_ch2_quinidine10uM,QCGRADE,QC Grade,B,,B,,,,DERIVED,,ALGORITHM,4,2026-03-22,1,QUINIDINE 10 uM,TREATMENT
CIPA001,EG,CIPA001-A-EL2,48,chipA_ch2_quinidine10uM,FPDCFPC,FPDcF Pct Change,-57.0490,%,-57.0490,-57.049,%,,DERIVED,,ALGORITHM,4,2026-03-22,1,QUINIDINE 10 uM,TREATMENT
CIPA001,EG,CIPA001-A-EL2,49,chipA_ch2_quinidine10uM,BPPCT,Beat Period Pct Change,-30.8048,%,-30.8048,-30.8048,%,,DERIVED,,ALGORITHM,4,2026-03-22,1,QUINIDINE 10 uM,TREATMENT
CIPA001,EG,CIPA001-A-EL2,50,chipA_ch2_quinidine10uM,AMPPCT,Amplitude Pct Change,-29.5225,%,-29.5225,-29.5225,%,,DERIVED,,ALGORITHM,4,2026-03-22,1,QUINIDINE 10 uM,TREATMENT
CIPA001,EG,CIPA001-A-EL2,51,chipA_ch2_quinidine10uM,TDPSCR,TdP Risk Score,-1,SCORE,-1,-1.0,SCORE,,DERIVED,,ALGORITHM,4,2026-03-22,1,QUINIDINE 10 uM,TREATMENT
CIPA001,EG,CIPA001-A-EL2,52,chipA_ch2_quinidine10uM,SPECCHG,Spectral Change,0.4939,SCORE,0.4939,0.4939,SCORE,,DERIVED,,ALGORITHM,4,2026-03-22,1,QUINIDINE 10 uM,TREATMENT
CIPA001,EG,CIPA001-A-EL2,53,chipA_ch2_quinidine10uM,RSKSCR,Arrhythmia Risk Score,36,SCORE,36,36.0,SCORE,,DERIVED,,ALGORITHM,4,2026-03-22,1,QUINIDINE 10 uM,TREATMENT
CIPA001,EG,CIPA001-A-EL2,54,chipA_ch2_quinidine10uM,MORPHIN,Morphology Instability,0.6485,SCORE,0.6485,0.6485,SCORE,,DERIVED,,ALGORITHM,4,2026-03-22,1,QUINIDINE 10 uM,TREATMENT
CIPA001,EG,CIPA001-A-EL2,55,chipA_ch2_quinidine10uM,EADPCT,EAD Incidence,0.0000,%,0.0000,0.0,%,,DERIVED,,ALGORITHM,4,2026-03-22,1,QUINIDINE 10 uM,TREATMENT
CIPA001,EG,CIPA001-A-EL2,56,chipA_ch2_quinidine1uM,FPD,FPD,787.3596,ms,787.3596,787.3596,ms,,DERIVED,,ALGORITHM,5,2026-03-22,1,QUINIDINE 1 uM,TREATMENT
CIPA001,EG,CIPA001-A-EL2,57,chipA_ch2_quinidine1uM,FPDCF,FPDcF,545.7439,ms,545.7439,545.7439,ms,,DERIVED,,ALGORITHM,5,2026-03-22,1,QUINIDINE 1 uM,TREATMENT
CIPA001,EG,CIPA001-A-EL2,58,chipA_ch2_quinidine1uM,BP,Beat Period,3153.6786,ms,3153.6786,3153.6786,ms,,DERIVED,,ALGORITHM,5,2026-03-22,1,QUINIDINE 1 uM,TREATMENT
CIPA001,EG,CIPA001-A-EL2,59,chipA_ch2_quinidine1uM,SPIKEAM,Spike Amplitude,243.9020,uV,243.9020,243.902,uV,,DERIVED,,ALGORITHM,5,2026-03-22,1,QUINIDINE 1 uM,TREATMENT
CIPA001,EG,CIPA001-A-EL2,60,chipA_ch2_quinidine1uM,FPDCONF,FPD Confidence,0.8882,SCORE,0.8882,0.8882,SCORE,,DERIVED,,ALGORITHM,5,2026-03-22,1,QUINIDINE 1 uM,TREATMENT
CIPA001,EG,CIPA001-A-EL2,61,chipA_ch2_quinidine1uM,INTVL,Heart Rate,19.0254,beats/min,19.0254,19.0254,beats/min,,DERIVED,,ALGORITHM,5,2026-03-22,1,QUINIDINE 1 uM,TREATMENT
CIPA001,EG,CIPA001-A-EL2,62,chipA_ch2_quinidine1uM,QCGRADE,QC Grade,B,,B,,,,DERIVED,,ALGORITHM,5,2026-03-22,1,QUINIDINE 1 uM,TREATMENT
CIPA001,EG,CIPA001-A-EL2,63,chipA_ch2_quinidine1uM,FPDCFPC,FPDcF Pct Change,5.7340,%,5.7340,5.734,%,,DERIVED,,ALGORITHM,5,2026-03-22,1,QUINIDINE 1 uM,TREATMENT
CIPA001,EG,CIPA001-A-EL2,64,chipA_ch2_quinidine1uM,BPPCT,Beat Period Pct Change,36.3244,%,36.3244,36.3244,%,,DERIVED,,ALGORITHM,5,2026-03-22,1,QUINIDINE 1 uM,TREATMENT
CIPA001,EG,CIPA001-A-EL2,65,chipA_ch2_quinidine1uM,AMPPCT,Amplitude Pct Change,-66.8562,%,-66.8562,-66.8562,%,,DERIVED,,ALGORITHM,5,2026-03-22,1,QUINIDINE 1 uM,TREATMENT
CIPA001,EG,CIPA001-A-EL2,66,chipA_ch2_quinidine1uM,TDPSCR,TdP Risk Score,0,SCORE,0,0.0,SCORE,,DERIVED,,ALGORITHM,5,2026-03-22,1,QUINIDINE 1 uM,TREATMENT
CIPA001,EG,CIPA001-A-EL2,67,chipA_ch2_quinidine1uM,SPECCHG,Spectral Change,0.2758,SCORE,0.2758,0.2758,SCORE,,DERIVED,,ALGORITHM,5,2026-03-22,1,QUINIDINE 1 uM,TREATMENT
CIPA001,EG,CIPA001-A-EL2,68,chipA_ch2_quinidine1uM,RSKSCR,Arrhythmia Risk Score,48,SCORE,48,48.0,SCORE,,DERIVED,,ALGORITHM,5,2026-03-22,1,QUINIDINE 1 uM,TREATMENT
CIPA001,EG,CIPA001-A-EL2,69,chipA_ch2_quinidine1uM,MORPHIN,Morphology Instability,0.8598,SCORE,0.8598,0.8598,SCORE,,DERIVED,,ALGORITHM,5,2026-03-22,1,QUINIDINE 1 uM,TREATMENT
CIPA001,EG,CIPA001-A-EL2,70,chipA_ch2_quinidine1uM,EADPCT,EAD Incidence,0.0000,%,0.0000,0.0,%,,DERIVED,,ALGORITHM,5,2026-03-22,1,QUINIDINE 1 uM,TREATMENT
CIPA001,EG,CIPA001-A-EL1,91,chipA_ch2_quinidine30uM,FPD,FPD,833.4812,ms,833.4812,833.4812,ms,,DERIVED,,ALGORITHM,7,2026-03-22,1,QUINIDINE 30 uM,TREATMENT
CIPA001,EG,CIPA001-A-EL1,92,chipA_ch2_quinidine30uM,FPDCF,FPDcF,868.3880,ms,868.3880,868.388,ms,,DERIVED,,ALGORITHM,7,2026-03-22,1,QUINIDINE 30 uM,TREATMENT
CIPA001,EG,CIPA001-A-EL1,93,chipA_ch2_quinidine30uM,BP,Beat Period,894.8647,ms,894.8647,894.8647,ms,,DERIVED,,ALGORITHM,7,2026-03-22,1,QUINIDINE 30 uM,TREATMENT
CIPA001,EG,CIPA001-A-EL1,94,chipA_ch2_quinidine30uM,SPIKEAM,Spike Amplitude,154.3046,uV,154.3046,154.3046,uV,,DERIVED,,ALGORITHM,7,2026-03-22,1,QUINIDINE 30 uM,TREATMENT
CIPA001,EG,CIPA001-A-EL1,95,chipA_ch2_quinidine30uM,FPDCONF,FPD Confidence,0.8595,SCORE,0.8595,0.8595,SCORE,,DERIVED,,ALGORITHM,7,2026-03-22,1,QUINIDINE 30 uM,TREATMENT
CIPA001,EG,CIPA001-A-EL1,96,chipA_ch2_quinidine30uM,INTVL,Heart Rate,67.0492,beats/min,67.0492,67.0492,beats/min,,DERIVED,,ALGORITHM,7,2026-03-22,1,QUINIDINE 30 uM,TREATMENT
CIPA001,EG,CIPA001-A-EL1,97,chipA_ch2_quinidine30uM,QCGRADE,QC Grade,C,,C,,,,DERIVED,,ALGORITHM,7,2026-03-22,1,QUINIDINE 30 uM,TREATMENT
CIPA001,EG,CIPA001-A-EL1,98,chipA_ch2_quinidine30uM,FPDCFPC,FPDcF Pct Change,68.2440,%,68.2440,68.244,%,,DERIVED,,ALGORITHM,7,2026-03-22,1,QUINIDINE 30 uM,TREATMENT
CIPA001,EG,CIPA001-A-EL1,99,chipA_ch2_quinidine30uM,BPPCT,Beat Period Pct Change,-61.3176,%,-61.3176,-61.3176,%,,DERIVED,,ALGORITHM,7,2026-03-22,1,QUINIDINE 30 uM,TREATMENT
CIPA001,EG,CIPA001-A-EL1,100,chipA_ch2_quinidine30uM,AMPPCT,Amplitude Pct Change,-79.0316,%,-79.0316,-79.0316,%,,DERIVED,,ALGORITHM,7,2026-03-22,1,QUINIDINE 30 uM,TREATMENT
CIPA001,EG,CIPA001-A-EL1,101,chipA_ch2_quinidine30uM,TDPSCR,TdP Risk Score,3,SCORE,3,3.0,SCORE,,DERIVED,,ALGORITHM,7,2026-03-22,1,QUINIDINE 30 uM,TREATMENT
CIPA001,EG,CIPA001-A-EL1,102,chipA_ch2_quinidine30uM,SPECCHG,Spectral Change,0.4818,SCORE,0.4818,0.4818,SCORE,,DERIVED,,ALGORITHM,7,2026-03-22,1,QUINIDINE 30 uM,TREATMENT
CIPA001,EG,CIPA001-A-EL1,103,chipA_ch2_quinidine30uM,RSKSCR,Arrhythmia Risk Score,30,SCORE,30,30.0,SCORE,,DERIVED,,ALGORITHM,7,2026-03-22,1,QUINIDINE 30 uM,TREATMENT
CIPA001,EG,CIPA001-A-EL1,104,chipA_ch2_quinidine30uM,MORPHIN,Morphology Instability,0.4288,SCORE,0.4288,0.4288,SCORE,,DERIVED,,ALGORITHM,7,2026-03-22,1,QUINIDINE 30 uM,TREATMENT
CIPA001,EG,CIPA001-A-EL1,105,chipA_ch2_quinidine30uM,EADPCT,EAD Incidence,0.0000,%,0.0000,0.0,%,,DERIVED,,ALGORITHM,7,2026-03-22,1,QUINIDINE 30 uM,TREATMENT
CIPA001,EG,CIPA001-A-EL2,71,chipA_ch2_quinidine3uM,FPD,FPD,796.0433,ms,796.0433,796.0433,ms,,DERIVED,,ALGORITHM,6,2026-03-22,1,QUINIDINE 3 uM,TREATMENT
CIPA001,EG,CIPA001-A-EL2,72,chipA_ch2_quinidine3uM,FPDCF,FPDcF,711.1395,ms,711.1395,711.1395,ms,,DERIVED,,ALGORITHM,6,2026-03-22,1,QUINIDINE 3 uM,TREATMENT
CIPA001,EG,CIPA001-A-EL2,73,chipA_ch2_quinidine3uM,BP,Beat Period,1413.5827,ms,1413.5827,1413.5827,ms,,DERIVED,,ALGORITHM,6,2026-03-22,1,QUINIDINE 3 uM,TREATMENT
CIPA001,EG,CIPA001-A-EL2,74,chipA_ch2_quinidine3uM,SPIKEAM,Spike Amplitude,477.1328,uV,477.1328,477.1328,uV,,DERIVED,,ALGORITHM,6,2026-03-22,1,QUINIDINE 3 uM,TREATMENT
CIPA001,EG,CIPA001-A-EL2,75,chipA_ch2_quinidine3uM,FPDCONF,FPD Confidence,0.8573,SCORE,0.8573,0.8573,SCORE,,DERIVED,,ALGORITHM,6,2026-03-22,1,QUINIDINE 3 uM,TREATMENT
CIPA001,EG,CIPA001-A-EL2,76,chipA_ch2_quinidine3uM,INTVL,Heart Rate,42.4453,beats/min,42.4453,42.4453,beats/min,,DERIVED,,ALGORITHM,6,2026-03-22,1,QUINIDINE 3 uM,TREATMENT
CIPA001,EG,CIPA001-A-EL2,77,chipA_ch2_quinidine3uM,QCGRADE,QC Grade,B,,B,,,,DERIVED,,ALGORITHM,6,2026-03-22,1,QUINIDINE 3 uM,TREATMENT
CIPA001,EG,CIPA001-A-EL2,78,chipA_ch2_quinidine3uM,FPDCFPC,FPDcF Pct Change,37.7782,%,37.7782,37.7782,%,,DERIVED,,ALGORITHM,6,2026-03-22,1,QUINIDINE 3 uM,TREATMENT
CIPA001,EG,CIPA001-A-EL2,79,chipA_ch2_quinidine3uM,BPPCT,Beat Period Pct Change,-38.8949,%,-38.8949,-38.8949,%,,DERIVED,,ALGORITHM,6,2026-03-22,1,QUINIDINE 3 uM,TREATMENT
CIPA001,EG,CIPA001-A-EL2,80,chipA_ch2_quinidine3uM,AMPPCT,Amplitude Pct Change,-35.1625,%,-35.1625,-35.1625,%,,DERIVED,,ALGORITHM,6,2026-03-22,1,QUINIDINE 3 uM,TREATMENT
CIPA001,EG,CIPA001-A-EL2,81,chipA_ch2_quinidine3uM,TDPSCR,TdP Risk Score,3,SCORE,3,3.0,SCORE,,DERIVED,,ALGORITHM,6,2026-03-22,1,QUINIDINE 3 uM,TREATMENT
CIPA001,EG,CIPA001-A-EL2,82,chipA_ch2_quinidine3uM,SPECCHG,Spectral Change,0.2594,SCORE,0.2594,0.2594,SCORE,,DERIVED,,ALGORITHM,6,2026-03-22,1,QUINIDINE 3 uM,TREATMENT
CIPA001,EG,CIPA001-A-EL2,83,chipA_ch2_quinidine3uM,RSKSCR,Arrhythmia Risk Score,45,SCORE,45,45.0,SCORE,,DERIVED,,ALGORITHM,6,2026-03-22,1,QUINIDINE 3 uM,TREATMENT
CIPA001,EG,CIPA001-A-EL2,84,chipA_ch2_quinidine3uM,MORPHIN,Morphology Instability,0.7641,SCORE,0.7641,0.7641,SCORE,,DERIVED,,ALGORITHM,6,2026-03-22,1,QUINIDINE 3 uM,TREATMENT
CIPA001,EG,CIPA001-A-EL2,85,chipA_ch2_quinidine3uM,EADPCT,EAD Incidence,0.0000,%,0.0000,0.0,%,,DERIVED,,ALGORITHM,6,2026-03-22,1,QUINIDINE 3 uM,TREATMENT
CIPA001,EG,CIPA001-A-EL1,106,chipA_ch3_ranolazine_0_1uM,FPD,FPD,678.9897,ms,678.9897,678.9897,ms,,DERIVED,,ALGORITHM,8,2026-03-22,1,RANOLAZINE .0.1 uM,TREATMENT
CIPA001,EG,CIPA001-A-EL1,107,chipA_ch3_ranolazine_0_1uM,FPDCF,FPDcF,554.3015,ms,554.3015,554.3015,ms,,DERIVED,,ALGORITHM,8,2026-03-22,1,RANOLAZINE .0.1 uM,TREATMENT
CIPA001,EG,CIPA001-A-EL1,108,chipA_ch3_ranolazine_0_1uM,BP,Beat Period,1863.6667,ms,1863.6667,1863.6667,ms,,DERIVED,,ALGORITHM,8,2026-03-22,1,RANOLAZINE .0.1 uM,TREATMENT
CIPA001,EG,CIPA001-A-EL1,109,chipA_ch3_ranolazine_0_1uM,SPIKEAM,Spike Amplitude,1045.6379,uV,1045.6379,1045.6379,uV,,DERIVED,,ALGORITHM,8,2026-03-22,1,RANOLAZINE .0.1 uM,TREATMENT
CIPA001,EG,CIPA001-A-EL1,110,chipA_ch3_ranolazine_0_1uM,FPDCONF,FPD Confidence,0.8679,SCORE,0.8679,0.8679,SCORE,,DERIVED,,ALGORITHM,8,2026-03-22,1,RANOLAZINE .0.1 uM,TREATMENT
CIPA001,EG,CIPA001-A-EL1,111,chipA_ch3_ranolazine_0_1uM,INTVL,Heart Rate,32.1946,beats/min,32.1946,32.1946,beats/min,,DERIVED,,ALGORITHM,8,2026-03-22,1,RANOLAZINE .0.1 uM,TREATMENT
CIPA001,EG,CIPA001-A-EL1,112,chipA_ch3_ranolazine_0_1uM,QCGRADE,QC Grade,A,,A,,,,DERIVED,,ALGORITHM,8,2026-03-22,1,RANOLAZINE .0.1 uM,TREATMENT
CIPA001,EG,CIPA001-A-EL1,113,chipA_ch3_ranolazine_0_1uM,FPDCFPC,FPDcF Pct Change,3.2458,%,3.2458,3.2458,%,,DERIVED,,ALGORITHM,8,2026-03-22,1,RANOLAZINE .0.1 uM,TREATMENT
CIPA001,EG,CIPA001-A-EL1,114,chipA_ch3_ranolazine_0_1uM,BPPCT,Beat Period Pct Change,23.6072,%,23.6072,23.6072,%,,DERIVED,,ALGORITHM,8,2026-03-22,1,RANOLAZINE .0.1 uM,TREATMENT
CIPA001,EG,CIPA001-A-EL1,115,chipA_ch3_ranolazine_0_1uM,AMPPCT,Amplitude Pct Change,-5.7547,%,-5.7547,-5.7547,%,,DERIVED,,ALGORITHM,8,2026-03-22,1,RANOLAZINE .0.1 uM,TREATMENT
CIPA001,EG,CIPA001-A-EL1,116,chipA_ch3_ranolazine_0_1uM,TDPSCR,TdP Risk Score,0,SCORE,0,0.0,SCORE,,DERIVED,,ALGORITHM,8,2026-03-22,1,RANOLAZINE .0.1 uM,TREATMENT
CIPA001,EG,CIPA001-A-EL1,117,chipA_ch3_ranolazine_0_1uM,SPECCHG,Spectral Change,0.4750,SCORE,0.4750,0.475,SCORE,,DERIVED,,ALGORITHM,8,2026-03-22,1,RANOLAZINE .0.1 uM,TREATMENT
CIPA001,EG,CIPA001-A-EL1,118,chipA_ch3_ranolazine_0_1uM,RSKSCR,Arrhythmia Risk Score,10,SCORE,10,10.0,SCORE,,DERIVED,,ALGORITHM,8,2026-03-22,1,RANOLAZINE .0.1 uM,TREATMENT
CIPA001,EG,CIPA001-A-EL1,119,chipA_ch3_ranolazine_0_1uM,MORPHIN,Morphology Instability,0.1501,SCORE,0.1501,0.1501,SCORE,,DERIVED,,ALGORITHM,8,2026-03-22,1,RANOLAZINE .0.1 uM,TREATMENT
CIPA001,EG,CIPA001-A-EL1,120,chipA_ch3_ranolazine_0_1uM,EADPCT,EAD Incidence,0.0000,%,0.0000,0.0,%,,DERIVED,,ALGORITHM,8,2026-03-22,1,RANOLAZINE .0.1 uM,TREATMENT
CIPA001,EG,CIPA001-A-EL1,121,chipA_ch3_ranolazine_100uM,FPD,FPD,767.4625,ms,767.4625,767.4625,ms,,DERIVED,,ALGORITHM,9,2026-03-22,1,RANOLAZINE .100 uM,TREATMENT
CIPA001,EG,CIPA001-A-EL1,122,chipA_ch3_ranolazine_100uM,FPDCF,FPDcF,772.6487,ms,772.6487,772.6487,ms,,DERIVED,,ALGORITHM,9,2026-03-22,1,RANOLAZINE .100 uM,TREATMENT
CIPA001,EG,CIPA001-A-EL1,123,chipA_ch3_ranolazine_100uM,BP,Beat Period,1225.1410,ms,1225.1410,1225.141,ms,,DERIVED,,ALGORITHM,9,2026-03-22,1,RANOLAZINE .100 uM,TREATMENT
CIPA001,EG,CIPA001-A-EL1,124,chipA_ch3_ranolazine_100uM,SPIKEAM,Spike Amplitude,127.6371,uV,127.6371,127.6371,uV,,DERIVED,,ALGORITHM,9,2026-03-22,1,RANOLAZINE .100 uM,TREATMENT
CIPA001,EG,CIPA001-A-EL1,125,chipA_ch3_ranolazine_100uM,FPDCONF,FPD Confidence,0.5816,SCORE,0.5816,0.5816,SCORE,,DERIVED,,ALGORITHM,9,2026-03-22,1,RANOLAZINE .100 uM,TREATMENT
CIPA001,EG,CIPA001-A-EL1,126,chipA_ch3_ranolazine_100uM,INTVL,Heart Rate,48.9740,beats/min,48.9740,48.974,beats/min,,DERIVED,,ALGORITHM,9,2026-03-22,1,RANOLAZINE .100 uM,TREATMENT
CIPA001,EG,CIPA001-A-EL1,127,chipA_ch3_ranolazine_100uM,QCGRADE,QC Grade,D,,D,,,,DERIVED,,ALGORITHM,9,2026-03-22,1,RANOLAZINE .100 uM,TREATMENT
CIPA001,EG,CIPA001-A-EL1,128,chipA_ch3_ranolazine_100uM,FPDCFPC,FPDcF Pct Change,43.9158,%,43.9158,43.9158,%,,DERIVED,,ALGORITHM,9,2026-03-22,1,RANOLAZINE .100 uM,TREATMENT
CIPA001,EG,CIPA001-A-EL1,129,chipA_ch3_ranolazine_100uM,BPPCT,Beat Period Pct Change,-18.7428,%,-18.7428,-18.7428,%,,DERIVED,,ALGORITHM,9,2026-03-22,1,RANOLAZINE .100 uM,TREATMENT
CIPA001,EG,CIPA001-A-EL1,130,chipA_ch3_ranolazine_100uM,AMPPCT,Amplitude Pct Change,-88.4958,%,-88.4958,-88.4958,%,,DERIVED,,ALGORITHM,9,2026-03-22,1,RANOLAZINE .100 uM,TREATMENT
CIPA001,EG,CIPA001-A-EL1,131,chipA_ch3_ranolazine_100uM,TDPSCR,TdP Risk Score,3,SCORE,3,3.0,SCORE,,DERIVED,,ALGORITHM,9,2026-03-22,1,RANOLAZINE .100 uM,TREATMENT
CIPA001,EG,CIPA001-A-EL1,132,chipA_ch3_ranolazine_100uM,SPECCHG,Spectral Change,0.6142,SCORE,0.6142,0.6142,SCORE,,DERIVED,,ALGORITHM,9,2026-03-22,1,RANOLAZINE .100 uM,TREATMENT
CIPA001,EG,CIPA001-A-EL1,133,chipA_ch3_ranolazine_100uM,RSKSCR,Arrhythmia Risk Score,71,SCORE,71,71.0,SCORE,,DERIVED,,ALGORITHM,9,2026-03-22,1,RANOLAZINE .100 uM,TREATMENT
CIPA001,EG,CIPA001-A-EL1,134,chipA_ch3_ranolazine_100uM,MORPHIN,Morphology Instability,0.6217,SCORE,0.6217,0.6217,SCORE,,DERIVED,,ALGORITHM,9,2026-03-22,1,RANOLAZINE .100 uM,TREATMENT
CIPA001,EG,CIPA001-A-EL1,135,chipA_ch3_ranolazine_100uM,EADPCT,EAD Incidence,2.5000,%,2.5000,2.5,%,,DERIVED,,ALGORITHM,9,2026-03-22,1,RANOLAZINE .100 uM,TREATMENT
CIPA001,EG,CIPA001-A-EL1,136,chipA_ch3_ranolazine_10uM,FPD,FPD,812.5948,ms,812.5948,812.5948,ms,,DERIVED,,ALGORITHM,10,2026-03-22,1,RANOLAZINE .10 uM,TREATMENT
CIPA001,EG,CIPA001-A-EL1,137,chipA_ch3_ranolazine_10uM,FPDCF,FPDcF,710.2539,ms,710.2539,710.2539,ms,,DERIVED,,ALGORITHM,10,2026-03-22,1,RANOLAZINE .10 uM,TREATMENT
CIPA001,EG,CIPA001-A-EL1,138,chipA_ch3_ranolazine_10uM,BP,Beat Period,1530.6983,ms,1530.6983,1530.6983,ms,,DERIVED,,ALGORITHM,10,2026-03-22,1,RANOLAZINE .10 uM,TREATMENT
CIPA001,EG,CIPA001-A-EL1,139,chipA_ch3_ranolazine_10uM,SPIKEAM,Spike Amplitude,545.8261,uV,545.8261,545.8261,uV,,DERIVED,,ALGORITHM,10,2026-03-22,1,RANOLAZINE .10 uM,TREATMENT
CIPA001,EG,CIPA001-A-EL1,140,chipA_ch3_ranolazine_10uM,FPDCONF,FPD Confidence,0.9287,SCORE,0.9287,0.9287,SCORE,,DERIVED,,ALGORITHM,10,2026-03-22,1,RANOLAZINE .10 uM,TREATMENT
CIPA001,EG,CIPA001-A-EL1,141,chipA_ch3_ranolazine_10uM,INTVL,Heart Rate,39.1978,beats/min,39.1978,39.1978,beats/min,,DERIVED,,ALGORITHM,10,2026-03-22,1,RANOLAZINE .10 uM,TREATMENT
CIPA001,EG,CIPA001-A-EL1,142,chipA_ch3_ranolazine_10uM,QCGRADE,QC Grade,D,,D,,,,DERIVED,,ALGORITHM,10,2026-03-22,1,RANOLAZINE .10 uM,TREATMENT
CIPA001,EG,CIPA001-A-EL1,143,chipA_ch3_ranolazine_10uM,FPDCFPC,FPDcF Pct Change,32.2940,%,32.2940,32.294,%,,DERIVED,,ALGORITHM,10,2026-03-22,1,RANOLAZINE .10 uM,TREATMENT
CIPA001,EG,CIPA001-A-EL1,144,chipA_ch3_ranolazine_10uM,BPPCT,Beat Period Pct Change,1.5232,%,1.5232,1.5232,%,,DERIVED,,ALGORITHM,10,2026-03-22,1,RANOLAZINE .10 uM,TREATMENT
CIPA001,EG,CIPA001-A-EL1,145,chipA_ch3_ranolazine_10uM,AMPPCT,Amplitude Pct Change,-50.8036,%,-50.8036,-50.8036,%,,DERIVED,,ALGORITHM,10,2026-03-22,1,RANOLAZINE .10 uM,TREATMENT
CIPA001,EG,CIPA001-A-EL1,146,chipA_ch3_ranolazine_10uM,TDPSCR,TdP Risk Score,3,SCORE,3,3.0,SCORE,,DERIVED,,ALGORITHM,10,2026-03-22,1,RANOLAZINE .10 uM,TREATMENT
CIPA001,EG,CIPA001-A-EL1,147,chipA_ch3_ranolazine_10uM,SPECCHG,Spectral Change,0.4784,SCORE,0.4784,0.4784,SCORE,,DERIVED,,ALGORITHM,10,2026-03-22,1,RANOLAZINE .10 uM,TREATMENT
CIPA001,EG,CIPA001-A-EL1,148,chipA_ch3_ranolazine_10uM,RSKSCR,Arrhythmia Risk Score,29,SCORE,29,29.0,SCORE,,DERIVED,,ALGORITHM,10,2026-03-22,1,RANOLAZINE .10 uM,TREATMENT
CIPA001,EG,CIPA001-A-EL1,149,chipA_ch3_ranolazine_10uM,MORPHIN,Morphology Instability,0.2044,SCORE,0.2044,0.2044,SCORE,,DERIVED,,ALGORITHM,10,2026-03-22,1,RANOLAZINE .10 uM,TREATMENT
CIPA001,EG,CIPA001-A-EL1,150,chipA_ch3_ranolazine_10uM,EADPCT,EAD Incidence,1.7241,%,1.7241,1.7241,%,,DERIVED,,ALGORITHM,10,2026-03-22,1,RANOLAZINE .10 uM,TREATMENT
CIPA001,EG,CIPA001-A-EL1,151,chipA_ch3_ranolazine_1uM,FPD,FPD,667.9804,ms,667.9804,667.9804,ms,,DERIVED,,ALGORITHM,11,2026-03-22,1,RANOLAZINE .1 uM,TREATMENT
CIPA001,EG,CIPA001-A-EL1,152,chipA_ch3_ranolazine_1uM,FPDCF,FPDcF,556.1707,ms,556.1707,556.1707,ms,,DERIVED,,ALGORITHM,11,2026-03-22,1,RANOLAZINE .1 uM,TREATMENT
CIPA001,EG,CIPA001-A-EL1,153,chipA_ch3_ranolazine_1uM,BP,Beat Period,1759.8366,ms,1759.8366,1759.8366,ms,,DERIVED,,ALGORITHM,11,2026-03-22,1,RANOLAZINE .1 uM,TREATMENT
CIPA001,EG,CIPA001-A-EL1,154,chipA_ch3_ranolazine_1uM,SPIKEAM,Spike Amplitude,789.7104,uV,789.7104,789.7104,uV,,DERIVED,,ALGORITHM,11,2026-03-22,1,RANOLAZINE .1 uM,TREATMENT
CIPA001,EG,CIPA001-A-EL1,155,chipA_ch3_ranolazine_1uM,FPDCONF,FPD Confidence,0.8566,SCORE,0.8566,0.8566,SCORE,,DERIVED,,ALGORITHM,11,2026-03-22,1,RANOLAZINE .1 uM,TREATMENT
CIPA001,EG,CIPA001-A-EL1,156,chipA_ch3_ranolazine_1uM,INTVL,Heart Rate,34.0941,beats/min,34.0941,34.0941,beats/min,,DERIVED,,ALGORITHM,11,2026-03-22,1,RANOLAZINE .1 uM,TREATMENT
CIPA001,EG,CIPA001-A-EL1,157,chipA_ch3_ranolazine_1uM,QCGRADE,QC Grade,A,,A,,,,DERIVED,,ALGORITHM,11,2026-03-22,1,RANOLAZINE .1 uM,TREATMENT
CIPA001,EG,CIPA001-A-EL1,158,chipA_ch3_ranolazine_1uM,FPDCFPC,FPDcF Pct Change,3.5940,%,3.5940,3.594,%,,DERIVED,,ALGORITHM,11,2026-03-22,1,RANOLAZINE .1 uM,TREATMENT
CIPA001,EG,CIPA001-A-EL1,159,chipA_ch3_ranolazine_1uM,BPPCT,Beat Period Pct Change,16.7207,%,16.7207,16.7207,%,,DERIVED,,ALGORITHM,11,2026-03-22,1,RANOLAZINE .1 uM,TREATMENT
CIPA001,EG,CIPA001-A-EL1,160,chipA_ch3_ranolazine_1uM,AMPPCT,Amplitude Pct Change,-28.8219,%,-28.8219,-28.8219,%,,DERIVED,,ALGORITHM,11,2026-03-22,1,RANOLAZINE .1 uM,TREATMENT
CIPA001,EG,CIPA001-A-EL1,161,chipA_ch3_ranolazine_1uM,TDPSCR,TdP Risk Score,0,SCORE,0,0.0,SCORE,,DERIVED,,ALGORITHM,11,2026-03-22,1,RANOLAZINE .1 uM,TREATMENT
CIPA001,EG,CIPA001-A-EL1,162,chipA_ch3_ranolazine_1uM,SPECCHG,Spectral Change,0.3619,SCORE,0.3619,0.3619,SCORE,,DERIVED,,ALGORITHM,11,2026-03-22,1,RANOLAZINE .1 uM,TREATMENT
CIPA001,EG,CIPA001-A-EL1,163,chipA_ch3_ranolazine_1uM,RSKSCR,Arrhythmia Risk Score,23,SCORE,23,23.0,SCORE,,DERIVED,,ALGORITHM,11,2026-03-22,1,RANOLAZINE .1 uM,TREATMENT
CIPA001,EG,CIPA001-A-EL1,164,chipA_ch3_ranolazine_1uM,MORPHIN,Morphology Instability,0.1573,SCORE,0.1573,0.1573,SCORE,,DERIVED,,ALGORITHM,11,2026-03-22,1,RANOLAZINE .1 uM,TREATMENT
CIPA001,EG,CIPA001-A-EL1,165,chipA_ch3_ranolazine_1uM,EADPCT,EAD Incidence,0.0000,%,0.0000,0.0,%,,DERIVED,,ALGORITHM,11,2026-03-22,1,RANOLAZINE .1 uM,TREATMENT
CIPA001,EG,CIPA001-A-EL1,166,chipA_ch3_ranolazine_2uM,FPD,FPD,788.6117,ms,788.6117,788.6117,ms,,DERIVED,,ALGORITHM,12,2026-03-22,1,RANOLAZINE .2 uM,TREATMENT
CIPA001,EG,CIPA001-A-EL1,167,chipA_ch3_ranolazine_2uM,FPDCF,FPDcF,643.1131,ms,643.1131,643.1131,ms,,DERIVED,,ALGORITHM,12,2026-03-22,1,RANOLAZINE .2 uM,TREATMENT
CIPA001,EG,CIPA001-A-EL1,168,chipA_ch3_ranolazine_2uM,BP,Beat Period,1876.7043,ms,1876.7043,1876.7043,ms,,DERIVED,,ALGORITHM,12,2026-03-22,1,RANOLAZINE .2 uM,TREATMENT
CIPA001,EG,CIPA001-A-EL1,169,chipA_ch3_ranolazine_2uM,SPIKEAM,Spike Amplitude,702.5488,uV,702.5488,702.5488,uV,,DERIVED,,ALGORITHM,12,2026-03-22,1,RANOLAZINE .2 uM,TREATMENT
CIPA001,EG,CIPA001-A-EL1,170,chipA_ch3_ranolazine_2uM,FPDCONF,FPD Confidence,0.9322,SCORE,0.9322,0.9322,SCORE,,DERIVED,,ALGORITHM,12,2026-03-22,1,RANOLAZINE .2 uM,TREATMENT
CIPA001,EG,CIPA001-A-EL1,171,chipA_ch3_ranolazine_2uM,INTVL,Heart Rate,31.9709,beats/min,31.9709,31.9709,beats/min,,DERIVED,,ALGORITHM,12,2026-03-22,1,RANOLAZINE .2 uM,TREATMENT
CIPA001,EG,CIPA001-A-EL1,172,chipA_ch3_ranolazine_2uM,QCGRADE,QC Grade,D,,D,,,,DERIVED,,ALGORITHM,12,2026-03-22,1,RANOLAZINE .2 uM,TREATMENT
CIPA001,EG,CIPA001-A-EL1,173,chipA_ch3_ranolazine_2uM,FPDCFPC,FPDcF Pct Change,19.7881,%,19.7881,19.7881,%,,DERIVED,,ALGORITHM,12,2026-03-22,1,RANOLAZINE .2 uM,TREATMENT
CIPA001,EG,CIPA001-A-EL1,174,chipA_ch3_ranolazine_2uM,BPPCT,Beat Period Pct Change,24.4719,%,24.4719,24.4719,%,,DERIVED,,ALGORITHM,12,2026-03-22,1,RANOLAZINE .2 uM,TREATMENT
CIPA001,EG,CIPA001-A-EL1,175,chipA_ch3_ranolazine_2uM,AMPPCT,Amplitude Pct Change,-36.6779,%,-36.6779,-36.6779,%,,DERIVED,,ALGORITHM,12,2026-03-22,1,RANOLAZINE .2 uM,TREATMENT
CIPA001,EG,CIPA001-A-EL1,176,chipA_ch3_ranolazine_2uM,TDPSCR,TdP Risk Score,2,SCORE,2,2.0,SCORE,,DERIVED,,ALGORITHM,12,2026-03-22,1,RANOLAZINE .2 uM,TREATMENT
CIPA001,EG,CIPA001-A-EL1,177,chipA_ch3_ranolazine_2uM,SPECCHG,Spectral Change,0.5302,SCORE,0.5302,0.5302,SCORE,,DERIVED,,ALGORITHM,12,2026-03-22,1,RANOLAZINE .2 uM,TREATMENT
CIPA001,EG,CIPA001-A-EL1,178,chipA_ch3_ranolazine_2uM,RSKSCR,Arrhythmia Risk Score,21,SCORE,21,21.0,SCORE,,DERIVED,,ALGORITHM,12,2026-03-22,1,RANOLAZINE .2 uM,TREATMENT
CIPA001,EG,CIPA001-A-EL1,179,chipA_ch3_ranolazine_2uM,MORPHIN,Morphology Instability,0.1792,SCORE,0.1792,0.1792,SCORE,,DERIVED,,ALGORITHM,12,2026-03-22,1,RANOLAZINE .2 uM,TREATMENT
CIPA001,EG,CIPA001-A-EL1,180,chipA_ch3_ranolazine_2uM,EADPCT,EAD Incidence,0.0000,%,0.0000,0.0,%,,DERIVED,,ALGORITHM,12,2026-03-22,1,RANOLAZINE .2 uM,TREATMENT
CIPA001,EG,CIPA001-A-EL1,181,chipA_ch3_ranolazine_50uM,FPD,FPD,561.1184,ms,561.1184,561.1184,ms,,DERIVED,,ALGORITHM,13,2026-03-22,1,RANOLAZINE .50 uM,TREATMENT
CIPA001,EG,CIPA001-A-EL1,182,chipA_ch3_ranolazine_50uM,FPDCF,FPDcF,427.6817,ms,427.6817,427.6817,ms,,DERIVED,,ALGORITHM,13,2026-03-22,1,RANOLAZINE .50 uM,TREATMENT
CIPA001,EG,CIPA001-A-EL1,183,chipA_ch3_ranolazine_50uM,BP,Beat Period,2328.3267,ms,2328.3267,2328.3267,ms,,DERIVED,,ALGORITHM,13,2026-03-22,1,RANOLAZINE .50 uM,TREATMENT
CIPA001,EG,CIPA001-A-EL1,184,chipA_ch3_ranolazine_50uM,SPIKEAM,Spike Amplitude,88.0866,uV,88.0866,88.0866,uV,,DERIVED,,ALGORITHM,13,2026-03-22,1,RANOLAZINE .50 uM,TREATMENT
CIPA001,EG,CIPA001-A-EL1,185,chipA_ch3_ranolazine_50uM,FPDCONF,FPD Confidence,0.6097,SCORE,0.6097,0.6097,SCORE,,DERIVED,,ALGORITHM,13,2026-03-22,1,RANOLAZINE .50 uM,TREATMENT
CIPA001,EG,CIPA001-A-EL1,186,chipA_ch3_ranolazine_50uM,INTVL,Heart Rate,25.7696,beats/min,25.7696,25.7696,beats/min,,DERIVED,,ALGORITHM,13,2026-03-22,1,RANOLAZINE .50 uM,TREATMENT
CIPA001,EG,CIPA001-A-EL1,187,chipA_ch3_ranolazine_50uM,QCGRADE,QC Grade,D,,D,,,,DERIVED,,ALGORITHM,13,2026-03-22,1,RANOLAZINE .50 uM,TREATMENT
CIPA001,EG,CIPA001-A-EL1,188,chipA_ch3_ranolazine_50uM,FPDCFPC,FPDcF Pct Change,-20.3387,%,-20.3387,-20.3387,%,,DERIVED,,ALGORITHM,13,2026-03-22,1,RANOLAZINE .50 uM,TREATMENT
CIPA001,EG,CIPA001-A-EL1,189,chipA_ch3_ranolazine_50uM,BPPCT,Beat Period Pct Change,54.4257,%,54.4257,54.4257,%,,DERIVED,,ALGORITHM,13,2026-03-22,1,RANOLAZINE .50 uM,TREATMENT
CIPA001,EG,CIPA001-A-EL1,190,chipA_ch3_ranolazine_50uM,AMPPCT,Amplitude Pct Change,-92.0606,%,-92.0606,-92.0606,%,,DERIVED,,ALGORITHM,13,2026-03-22,1,RANOLAZINE .50 uM,TREATMENT
CIPA001,EG,CIPA001-A-EL1,191,chipA_ch3_ranolazine_50uM,TDPSCR,TdP Risk Score,-1,SCORE,-1,-1.0,SCORE,,DERIVED,,ALGORITHM,13,2026-03-22,1,RANOLAZINE .50 uM,TREATMENT
CIPA001,EG,CIPA001-A-EL1,192,chipA_ch3_ranolazine_50uM,SPECCHG,Spectral Change,0.6950,SCORE,0.6950,0.695,SCORE,,DERIVED,,ALGORITHM,13,2026-03-22,1,RANOLAZINE .50 uM,TREATMENT
CIPA001,EG,CIPA001-A-EL1,193,chipA_ch3_ranolazine_50uM,RSKSCR,Arrhythmia Risk Score,30,SCORE,30,30.0,SCORE,,DERIVED,,ALGORITHM,13,2026-03-22,1,RANOLAZINE .50 uM,TREATMENT
CIPA001,EG,CIPA001-A-EL1,194,chipA_ch3_ranolazine_50uM,MORPHIN,Morphology Instability,0.2286,SCORE,0.2286,0.2286,SCORE,,DERIVED,,ALGORITHM,13,2026-03-22,1,RANOLAZINE .50 uM,TREATMENT
CIPA001,EG,CIPA001-A-EL1,195,chipA_ch3_ranolazine_50uM,EADPCT,EAD Incidence,0.0000,%,0.0000,0.0,%,,DERIVED,,ALGORITHM,13,2026-03-22,1,RANOLAZINE .50 uM,TREATMENT
CIPA001,EG,CIPA001-C-EL1,1,chipC_ch1_Alfus_100nM_2,FPD,FPD,433.9924,ms,433.9924,433.9924,ms,,DERIVED,,ALGORITHM,1,2026-03-22,1,ALFUZOSIN .100 nM,TREATMENT
CIPA001,EG,CIPA001-C-EL1,2,chipC_ch1_Alfus_100nM_2,FPDCF,FPDcF,311.7726,ms,311.7726,311.7726,ms,,DERIVED,,ALGORITHM,1,2026-03-22,1,ALFUZOSIN .100 nM,TREATMENT
CIPA001,EG,CIPA001-C-EL1,3,chipC_ch1_Alfus_100nM_2,BP,Beat Period,2732.0077,ms,2732.0077,2732.0077,ms,,DERIVED,,ALGORITHM,1,2026-03-22,1,ALFUZOSIN .100 nM,TREATMENT
CIPA001,EG,CIPA001-C-EL1,4,chipC_ch1_Alfus_100nM_2,SPIKEAM,Spike Amplitude,1219.6084,uV,1219.6084,1219.6084,uV,,DERIVED,,ALGORITHM,1,2026-03-22,1,ALFUZOSIN .100 nM,TREATMENT
CIPA001,EG,CIPA001-C-EL1,5,chipC_ch1_Alfus_100nM_2,FPDCONF,FPD Confidence,0.8744,SCORE,0.8744,0.8744,SCORE,,DERIVED,,ALGORITHM,1,2026-03-22,1,ALFUZOSIN .100 nM,TREATMENT
CIPA001,EG,CIPA001-C-EL1,6,chipC_ch1_Alfus_100nM_2,INTVL,Heart Rate,21.9619,beats/min,21.9619,21.9619,beats/min,,DERIVED,,ALGORITHM,1,2026-03-22,1,ALFUZOSIN .100 nM,TREATMENT
CIPA001,EG,CIPA001-C-EL1,7,chipC_ch1_Alfus_100nM_2,QCGRADE,QC Grade,A,,A,,,,DERIVED,,ALGORITHM,1,2026-03-22,1,ALFUZOSIN .100 nM,TREATMENT
CIPA001,EG,CIPA001-C-EL1,8,chipC_ch1_Alfus_100nM_2,FPDCFPC,FPDcF Pct Change,-25.6224,%,-25.6224,-25.6224,%,,DERIVED,,ALGORITHM,1,2026-03-22,1,ALFUZOSIN .100 nM,TREATMENT
CIPA001,EG,CIPA001-C-EL1,9,chipC_ch1_Alfus_100nM_2,BPPCT,Beat Period Pct Change,74.4753,%,74.4753,74.4753,%,,DERIVED,,ALGORITHM,1,2026-03-22,1,ALFUZOSIN .100 nM,TREATMENT
CIPA001,EG,CIPA001-C-EL1,10,chipC_ch1_Alfus_100nM_2,AMPPCT,Amplitude Pct Change,-47.7864,%,-47.7864,-47.7864,%,,DERIVED,,ALGORITHM,1,2026-03-22,1,ALFUZOSIN .100 nM,TREATMENT
CIPA001,EG,CIPA001-C-EL1,11,chipC_ch1_Alfus_100nM_2,TDPSCR,TdP Risk Score,-1,SCORE,-1,-1.0,SCORE,,DERIVED,,ALGORITHM,1,2026-03-22,1,ALFUZOSIN .100 nM,TREATMENT
CIPA001,EG,CIPA001-C-EL1,12,chipC_ch1_Alfus_100nM_2,SPECCHG,Spectral Change,0.6138,SCORE,0.6138,0.6138,SCORE,,DERIVED,,ALGORITHM,1,2026-03-22,1,ALFUZOSIN .100 nM,TREATMENT
CIPA001,EG,CIPA001-C-EL1,13,chipC_ch1_Alfus_100nM_2,RSKSCR,Arrhythmia Risk Score,22,SCORE,22,22.0,SCORE,,DERIVED,,ALGORITHM,1,2026-03-22,1,ALFUZOSIN .100 nM,TREATMENT
CIPA001,EG,CIPA001-C-EL1,14,chipC_ch1_Alfus_100nM_2,MORPHIN,Morphology Instability,0.1236,SCORE,0.1236,0.1236,SCORE,,DERIVED,,ALGORITHM,1,2026-03-22,1,ALFUZOSIN .100 nM,TREATMENT
CIPA001,EG,CIPA001-C-EL1,15,chipC_ch1_Alfus_100nM_2,EADPCT,EAD Incidence,0.0000,%,0.0000,0.0,%,,DERIVED,,ALGORITHM,1,2026-03-22,1,ALFUZOSIN .100 nM,TREATMENT
CIPA001,EG,CIPA001-C-EL2,1,chipC_ch1_Alfus_10nM_2,FPD,FPD,525.4437,ms,525.4437,525.4437,ms,,DERIVED,,ALGORITHM,1,2026-03-22,1,ALFUZOSIN .10 nM,TREATMENT
CIPA001,EG,CIPA001-C-EL2,2,chipC_ch1_Alfus_10nM_2,FPDCF,FPDcF,386.9183,ms,386.9183,386.9183,ms,,DERIVED,,ALGORITHM,1,2026-03-22,1,ALFUZOSIN .10 nM,TREATMENT
CIPA001,EG,CIPA001-C-EL2,3,chipC_ch1_Alfus_10nM_2,BP,Beat Period,2525.4929,ms,2525.4929,2525.4929,ms,,DERIVED,,ALGORITHM,1,2026-03-22,1,ALFUZOSIN .10 nM,TREATMENT
CIPA001,EG,CIPA001-C-EL2,4,chipC_ch1_Alfus_10nM_2,SPIKEAM,Spike Amplitude,1131.9429,uV,1131.9429,1131.9429,uV,,DERIVED,,ALGORITHM,1,2026-03-22,1,ALFUZOSIN .10 nM,TREATMENT
CIPA001,EG,CIPA001-C-EL2,5,chipC_ch1_Alfus_10nM_2,FPDCONF,FPD Confidence,0.7530,SCORE,0.7530,0.753,SCORE,,DERIVED,,ALGORITHM,1,2026-03-22,1,ALFUZOSIN .10 nM,TREATMENT
CIPA001,EG,CIPA001-C-EL2,6,chipC_ch1_Alfus_10nM_2,INTVL,Heart Rate,23.7577,beats/min,23.7577,23.7577,beats/min,,DERIVED,,ALGORITHM,1,2026-03-22,1,ALFUZOSIN .10 nM,TREATMENT
CIPA001,EG,CIPA001-C-EL2,7,chipC_ch1_Alfus_10nM_2,QCGRADE,QC Grade,D,,D,,,,DERIVED,,ALGORITHM,1,2026-03-22,1,ALFUZOSIN .10 nM,TREATMENT
CIPA001,EG,CIPA001-C-EL2,8,chipC_ch1_Alfus_10nM_2,FPDCFPC,FPDcF Pct Change,-7.6954,%,-7.6954,-7.6954,%,,DERIVED,,ALGORITHM,1,2026-03-22,1,ALFUZOSIN .10 nM,TREATMENT
CIPA001,EG,CIPA001-C-EL2,9,chipC_ch1_Alfus_10nM_2,BPPCT,Beat Period Pct Change,61.2866,%,61.2866,61.2866,%,,DERIVED,,ALGORITHM,1,2026-03-22,1,ALFUZOSIN .10 nM,TREATMENT
CIPA001,EG,CIPA001-C-EL2,10,chipC_ch1_Alfus_10nM_2,AMPPCT,Amplitude Pct Change,-51.5395,%,-51.5395,-51.5395,%,,DERIVED,,ALGORITHM,1,2026-03-22,1,ALFUZOSIN .10 nM,TREATMENT
CIPA001,EG,CIPA001-C-EL2,11,chipC_ch1_Alfus_10nM_2,TDPSCR,TdP Risk Score,0,SCORE,0,0.0,SCORE,,DERIVED,,ALGORITHM,1,2026-03-22,1,ALFUZOSIN .10 nM,TREATMENT
CIPA001,EG,CIPA001-C-EL2,12,chipC_ch1_Alfus_10nM_2,SPECCHG,Spectral Change,0.3448,SCORE,0.3448,0.3448,SCORE,,DERIVED,,ALGORITHM,1,2026-03-22,1,ALFUZOSIN .10 nM,TREATMENT
CIPA001,EG,CIPA001-C-EL2,13,chipC_ch1_Alfus_10nM_2,RSKSCR,Arrhythmia Risk Score,40,SCORE,40,40.0,SCORE,,DERIVED,,ALGORITHM,1,2026-03-22,1,ALFUZOSIN .10 nM,TREATMENT
CIPA001,EG,CIPA001-C-EL2,14,chipC_ch1_Alfus_10nM_2,MORPHIN,Morphology Instability,0.2141,SCORE,0.2141,0.2141,SCORE,,DERIVED,,ALGORITHM,1,2026-03-22,1,ALFUZOSIN .10 nM,TREATMENT
CIPA001,EG,CIPA001-C-EL2,15,chipC_ch1_Alfus_10nM_2,EADPCT,EAD Incidence,0.0000,%,0.0000,0.0,%,,DERIVED,,ALGORITHM,1,2026-03-22,1,ALFUZOSIN .10 nM,TREATMENT
CIPA001,EG,CIPA001-C-EL2,16,chipC_ch1_Alfus_1nM,FPD,FPD,603.4394,ms,603.4394,603.4394,ms,,DERIVED,,ALGORITHM,2,2026-03-22,1,ALFUZOSIN .1 nM,TREATMENT
CIPA001,EG,CIPA001-C-EL2,17,chipC_ch1_Alfus_1nM,FPDCF,FPDcF,432.6436,ms,432.6436,432.6436,ms,,DERIVED,,ALGORITHM,2,2026-03-22,1,ALFUZOSIN .1 nM,TREATMENT
CIPA001,EG,CIPA001-C-EL2,18,chipC_ch1_Alfus_1nM,BP,Beat Period,2734.1231,ms,2734.1231,2734.1231,ms,,DERIVED,,ALGORITHM,2,2026-03-22,1,ALFUZOSIN .1 nM,TREATMENT
CIPA001,EG,CIPA001-C-EL2,19,chipC_ch1_Alfus_1nM,SPIKEAM,Spike Amplitude,1489.1102,uV,1489.1102,1489.1102,uV,,DERIVED,,ALGORITHM,2,2026-03-22,1,ALFUZOSIN .1 nM,TREATMENT
CIPA001,EG,CIPA001-C-EL2,20,chipC_ch1_Alfus_1nM,FPDCONF,FPD Confidence,0.7945,SCORE,0.7945,0.7945,SCORE,,DERIVED,,ALGORITHM,2,2026-03-22,1,ALFUZOSIN .1 nM,TREATMENT
CIPA001,EG,CIPA001-C-EL2,21,chipC_ch1_Alfus_1nM,INTVL,Heart Rate,21.9449,beats/min,21.9449,21.9449,beats/min,,DERIVED,,ALGORITHM,2,2026-03-22,1,ALFUZOSIN .1 nM,TREATMENT
CIPA001,EG,CIPA001-C-EL2,22,chipC_ch1_Alfus_1nM,QCGRADE,QC Grade,D,,D,,,,DERIVED,,ALGORITHM,2,2026-03-22,1,ALFUZOSIN .1 nM,TREATMENT
CIPA001,EG,CIPA001-C-EL2,23,chipC_ch1_Alfus_1nM,FPDCFPC,FPDcF Pct Change,3.2130,%,3.2130,3.213,%,,DERIVED,,ALGORITHM,2,2026-03-22,1,ALFUZOSIN .1 nM,TREATMENT
CIPA001,EG,CIPA001-C-EL2,24,chipC_ch1_Alfus_1nM,BPPCT,Beat Period Pct Change,74.6104,%,74.6104,74.6104,%,,DERIVED,,ALGORITHM,2,2026-03-22,1,ALFUZOSIN .1 nM,TREATMENT
CIPA001,EG,CIPA001-C-EL2,25,chipC_ch1_Alfus_1nM,AMPPCT,Amplitude Pct Change,-36.2485,%,-36.2485,-36.2485,%,,DERIVED,,ALGORITHM,2,2026-03-22,1,ALFUZOSIN .1 nM,TREATMENT
CIPA001,EG,CIPA001-C-EL2,26,chipC_ch1_Alfus_1nM,TDPSCR,TdP Risk Score,0,SCORE,0,0.0,SCORE,,DERIVED,,ALGORITHM,2,2026-03-22,1,ALFUZOSIN .1 nM,TREATMENT
CIPA001,EG,CIPA001-C-EL2,27,chipC_ch1_Alfus_1nM,SPECCHG,Spectral Change,0.3809,SCORE,0.3809,0.3809,SCORE,,DERIVED,,ALGORITHM,2,2026-03-22,1,ALFUZOSIN .1 nM,TREATMENT
CIPA001,EG,CIPA001-C-EL2,28,chipC_ch1_Alfus_1nM,RSKSCR,Arrhythmia Risk Score,44,SCORE,44,44.0,SCORE,,DERIVED,,ALGORITHM,2,2026-03-22,1,ALFUZOSIN .1 nM,TREATMENT
CIPA001,EG,CIPA001-C-EL2,29,chipC_ch1_Alfus_1nM,MORPHIN,Morphology Instability,0.2833,SCORE,0.2833,0.2833,SCORE,,DERIVED,,ALGORITHM,2,2026-03-22,1,ALFUZOSIN .1 nM,TREATMENT
CIPA001,EG,CIPA001-C-EL2,30,chipC_ch1_Alfus_1nM,EADPCT,EAD Incidence,0.0000,%,0.0000,0.0,%,,DERIVED,,ALGORITHM,2,2026-03-22,1,ALFUZOSIN .1 nM,TREATMENT
CIPA001,EG,CIPA001-C-EL2,31,chipC_ch1_Alfus_300nM,FPD,FPD,296.1346,ms,296.1346,296.1346,ms,,DERIVED,,ALGORITHM,3,2026-03-22,1,ALFUZOSIN .300 nM,TREATMENT
CIPA001,EG,CIPA001-C-EL2,32,chipC_ch1_Alfus_300nM,FPDCF,FPDcF,197.6055,ms,197.6055,197.6055,ms,,DERIVED,,ALGORITHM,3,2026-03-22,1,ALFUZOSIN .300 nM,TREATMENT
CIPA001,EG,CIPA001-C-EL2,33,chipC_ch1_Alfus_300nM,BP,Beat Period,3448.2451,ms,3448.2451,3448.2451,ms,,DERIVED,,ALGORITHM,3,2026-03-22,1,ALFUZOSIN .300 nM,TREATMENT
CIPA001,EG,CIPA001-C-EL2,34,chipC_ch1_Alfus_300nM,SPIKEAM,Spike Amplitude,167.4156,uV,167.4156,167.4156,uV,,DERIVED,,ALGORITHM,3,2026-03-22,1,ALFUZOSIN .300 nM,TREATMENT
CIPA001,EG,CIPA001-C-EL2,35,chipC_ch1_Alfus_300nM,FPDCONF,FPD Confidence,0.9527,SCORE,0.9527,0.9527,SCORE,,DERIVED,,ALGORITHM,3,2026-03-22,1,ALFUZOSIN .300 nM,TREATMENT
CIPA001,EG,CIPA001-C-EL2,36,chipC_ch1_Alfus_300nM,INTVL,Heart Rate,17.4002,beats/min,17.4002,17.4002,beats/min,,DERIVED,,ALGORITHM,3,2026-03-22,1,ALFUZOSIN .300 nM,TREATMENT
CIPA001,EG,CIPA001-C-EL2,37,chipC_ch1_Alfus_300nM,QCGRADE,QC Grade,D,,D,,,,DERIVED,,ALGORITHM,3,2026-03-22,1,ALFUZOSIN .300 nM,TREATMENT
CIPA001,EG,CIPA001-C-EL2,38,chipC_ch1_Alfus_300nM,FPDCFPC,FPDcF Pct Change,-52.8586,%,-52.8586,-52.8586,%,,DERIVED,,ALGORITHM,3,2026-03-22,1,ALFUZOSIN .300 nM,TREATMENT
CIPA001,EG,CIPA001-C-EL2,39,chipC_ch1_Alfus_300nM,BPPCT,Beat Period Pct Change,120.2167,%,120.2167,120.2167,%,,DERIVED,,ALGORITHM,3,2026-03-22,1,ALFUZOSIN .300 nM,TREATMENT
CIPA001,EG,CIPA001-C-EL2,40,chipC_ch1_Alfus_300nM,AMPPCT,Amplitude Pct Change,-92.8326,%,-92.8326,-92.8326,%,,DERIVED,,ALGORITHM,3,2026-03-22,1,ALFUZOSIN .300 nM,TREATMENT
CIPA001,EG,CIPA001-C-EL2,41,chipC_ch1_Alfus_300nM,TDPSCR,TdP Risk Score,-1,SCORE,-1,-1.0,SCORE,,DERIVED,,ALGORITHM,3,2026-03-22,1,ALFUZOSIN .300 nM,TREATMENT
CIPA001,EG,CIPA001-C-EL2,42,chipC_ch1_Alfus_300nM,SPECCHG,Spectral Change,0.3571,SCORE,0.3571,0.3571,SCORE,,DERIVED,,ALGORITHM,3,2026-03-22,1,ALFUZOSIN .300 nM,TREATMENT
CIPA001,EG,CIPA001-C-EL2,43,chipC_ch1_Alfus_300nM,RSKSCR,Arrhythmia Risk Score,56,SCORE,56,56.0,SCORE,,DERIVED,,ALGORITHM,3,2026-03-22,1,ALFUZOSIN .300 nM,TREATMENT
CIPA001,EG,CIPA001-C-EL2,44,chipC_ch1_Alfus_300nM,MORPHIN,Morphology Instability,0.4821,SCORE,0.4821,0.4821,SCORE,,DERIVED,,ALGORITHM,3,2026-03-22,1,ALFUZOSIN .300 nM,TREATMENT
CIPA001,EG,CIPA001-C-EL2,45,chipC_ch1_Alfus_300nM,EADPCT,EAD Incidence,0.0000,%,0.0000,0.0,%,,DERIVED,,ALGORITHM,3,2026-03-22,1,ALFUZOSIN .300 nM,TREATMENT
CIPA001,EG,CIPA001-C-EL2,46,chipC_ch1_Alfus_30nM_2,FPD,FPD,404.3782,ms,404.3782,404.3782,ms,,DERIVED,,ALGORITHM,4,2026-03-22,1,ALFUZOSIN .30 nM,TREATMENT
CIPA001,EG,CIPA001-C-EL2,47,chipC_ch1_Alfus_30nM_2,FPDCF,FPDcF,310.0479,ms,310.0479,310.0479,ms,,DERIVED,,ALGORITHM,4,2026-03-22,1,ALFUZOSIN .30 nM,TREATMENT
CIPA001,EG,CIPA001-C-EL2,48,chipC_ch1_Alfus_30nM_2,BP,Beat Period,2275.2821,ms,2275.2821,2275.2821,ms,,DERIVED,,ALGORITHM,4,2026-03-22,1,ALFUZOSIN .30 nM,TREATMENT
CIPA001,EG,CIPA001-C-EL2,49,chipC_ch1_Alfus_30nM_2,SPIKEAM,Spike Amplitude,1117.5987,uV,1117.5987,1117.5987,uV,,DERIVED,,ALGORITHM,4,2026-03-22,1,ALFUZOSIN .30 nM,TREATMENT
CIPA001,EG,CIPA001-C-EL2,50,chipC_ch1_Alfus_30nM_2,FPDCONF,FPD Confidence,0.7068,SCORE,0.7068,0.7068,SCORE,,DERIVED,,ALGORITHM,4,2026-03-22,1,ALFUZOSIN .30 nM,TREATMENT
CIPA001,EG,CIPA001-C-EL2,51,chipC_ch1_Alfus_30nM_2,INTVL,Heart Rate,26.3704,beats/min,26.3704,26.3704,beats/min,,DERIVED,,ALGORITHM,4,2026-03-22,1,ALFUZOSIN .30 nM,TREATMENT
CIPA001,EG,CIPA001-C-EL2,52,chipC_ch1_Alfus_30nM_2,QCGRADE,QC Grade,A,,A,,,,DERIVED,,ALGORITHM,4,2026-03-22,1,ALFUZOSIN .30 nM,TREATMENT
CIPA001,EG,CIPA001-C-EL2,53,chipC_ch1_Alfus_30nM_2,FPDCFPC,FPDcF Pct Change,-26.0339,%,-26.0339,-26.0339,%,,DERIVED,,ALGORITHM,4,2026-03-22,1,ALFUZOSIN .30 nM,TREATMENT
CIPA001,EG,CIPA001-C-EL2,54,chipC_ch1_Alfus_30nM_2,BPPCT,Beat Period Pct Change,45.3072,%,45.3072,45.3072,%,,DERIVED,,ALGORITHM,4,2026-03-22,1,ALFUZOSIN .30 nM,TREATMENT
CIPA001,EG,CIPA001-C-EL2,55,chipC_ch1_Alfus_30nM_2,AMPPCT,Amplitude Pct Change,-52.1536,%,-52.1536,-52.1536,%,,DERIVED,,ALGORITHM,4,2026-03-22,1,ALFUZOSIN .30 nM,TREATMENT
CIPA001,EG,CIPA001-C-EL2,56,chipC_ch1_Alfus_30nM_2,TDPSCR,TdP Risk Score,-1,SCORE,-1,-1.0,SCORE,,DERIVED,,ALGORITHM,4,2026-03-22,1,ALFUZOSIN .30 nM,TREATMENT
CIPA001,EG,CIPA001-C-EL2,57,chipC_ch1_Alfus_30nM_2,SPECCHG,Spectral Change,0.1877,SCORE,0.1877,0.1877,SCORE,,DERIVED,,ALGORITHM,4,2026-03-22,1,ALFUZOSIN .30 nM,TREATMENT
CIPA001,EG,CIPA001-C-EL2,58,chipC_ch1_Alfus_30nM_2,RSKSCR,Arrhythmia Risk Score,49,SCORE,49,49.0,SCORE,,DERIVED,,ALGORITHM,4,2026-03-22,1,ALFUZOSIN .30 nM,TREATMENT
CIPA001,EG,CIPA001-C-EL2,59,chipC_ch1_Alfus_30nM_2,MORPHIN,Morphology Instability,0.2191,SCORE,0.2191,0.2191,SCORE,,DERIVED,,ALGORITHM,4,2026-03-22,1,ALFUZOSIN .30 nM,TREATMENT
CIPA001,EG,CIPA001-C-EL2,60,chipC_ch1_Alfus_30nM_2,EADPCT,EAD Incidence,62.8205,%,62.8205,62.8205,%,,DERIVED,,ALGORITHM,4,2026-03-22,1,ALFUZOSIN .30 nM,TREATMENT
CIPA001,EG,CIPA001-C-EL2,61,chipC_ch1_baseline,FPD,FPD,486.3991,ms,486.3991,486.3991,ms,,DERIVED,Y,ALGORITHM,5,2026-03-22,1,BASELINE,BASELINE
CIPA001,EG,CIPA001-C-EL2,62,chipC_ch1_baseline,FPDCF,FPDcF,419.1757,ms,419.1757,419.1757,ms,,DERIVED,Y,ALGORITHM,5,2026-03-22,1,BASELINE,BASELINE
CIPA001,EG,CIPA001-C-EL2,63,chipC_ch1_baseline,BP,Beat Period,1565.8421,ms,1565.8421,1565.8421,ms,,DERIVED,Y,ALGORITHM,5,2026-03-22,1,BASELINE,BASELINE
CIPA001,EG,CIPA001-C-EL2,64,chipC_ch1_baseline,SPIKEAM,Spike Amplitude,2335.8041,uV,2335.8041,2335.8041,uV,,DERIVED,Y,ALGORITHM,5,2026-03-22,1,BASELINE,BASELINE
CIPA001,EG,CIPA001-C-EL2,65,chipC_ch1_baseline,FPDCONF,FPD Confidence,0.8532,SCORE,0.8532,0.8532,SCORE,,DERIVED,Y,ALGORITHM,5,2026-03-22,1,BASELINE,BASELINE
CIPA001,EG,CIPA001-C-EL2,66,chipC_ch1_baseline,INTVL,Heart Rate,38.3180,beats/min,38.3180,38.318,beats/min,,DERIVED,Y,ALGORITHM,5,2026-03-22,1,BASELINE,BASELINE
CIPA001,EG,CIPA001-C-EL2,67,chipC_ch1_baseline,QCGRADE,QC Grade,A,,A,,,,DERIVED,Y,ALGORITHM,5,2026-03-22,1,BASELINE,BASELINE
CIPA001,EG,CIPA001-C-EL2,68,chipC_ch1_baseline,RSKSCR,Arrhythmia Risk Score,0,SCORE,0,0.0,SCORE,,DERIVED,Y,ALGORITHM,5,2026-03-22,1,BASELINE,BASELINE
CIPA001,EG,CIPA001-C-EL2,69,chipC_ch1_baseline,MORPHIN,Morphology Instability,0.1074,SCORE,0.1074,0.1074,SCORE,,DERIVED,Y,ALGORITHM,5,2026-03-22,1,BASELINE,BASELINE
CIPA001,EG,CIPA001-C-EL2,70,chipC_ch1_baseline,EADPCT,EAD Incidence,0.0000,%,0.0000,0.0,%,,DERIVED,Y,ALGORITHM,5,2026-03-22,1,BASELINE,BASELINE
CIPA001,EG,CIPA001-C-EL1,16,chipC_ch2_MEXIL_0_1uM,FPD,FPD,534.2404,ms,534.2404,534.2404,ms,,DERIVED,,ALGORITHM,2,2026-03-22,1,MEXILETINE .0.1 uM,TREATMENT
CIPA001,EG,CIPA001-C-EL1,17,chipC_ch2_MEXIL_0_1uM,FPDCF,FPDcF,507.3511,ms,507.3511,507.3511,ms,,DERIVED,,ALGORITHM,2,2026-03-22,1,MEXILETINE .0.1 uM,TREATMENT
CIPA001,EG,CIPA001-C-EL1,18,chipC_ch2_MEXIL_0_1uM,BP,Beat Period,3365.6981,ms,3365.6981,3365.6981,ms,,DERIVED,,ALGORITHM,2,2026-03-22,1,MEXILETINE .0.1 uM,TREATMENT
CIPA001,EG,CIPA001-C-EL1,19,chipC_ch2_MEXIL_0_1uM,SPIKEAM,Spike Amplitude,575.5636,uV,575.5636,575.5636,uV,,DERIVED,,ALGORITHM,2,2026-03-22,1,MEXILETINE .0.1 uM,TREATMENT
CIPA001,EG,CIPA001-C-EL1,20,chipC_ch2_MEXIL_0_1uM,FPDCONF,FPD Confidence,0.6966,SCORE,0.6966,0.6966,SCORE,,DERIVED,,ALGORITHM,2,2026-03-22,1,MEXILETINE .0.1 uM,TREATMENT
CIPA001,EG,CIPA001-C-EL1,21,chipC_ch2_MEXIL_0_1uM,INTVL,Heart Rate,17.8269,beats/min,17.8269,17.8269,beats/min,,DERIVED,,ALGORITHM,2,2026-03-22,1,MEXILETINE .0.1 uM,TREATMENT
CIPA001,EG,CIPA001-C-EL1,22,chipC_ch2_MEXIL_0_1uM,QCGRADE,QC Grade,D,,D,,,,DERIVED,,ALGORITHM,2,2026-03-22,1,MEXILETINE .0.1 uM,TREATMENT
CIPA001,EG,CIPA001-C-EL1,23,chipC_ch2_MEXIL_0_1uM,RSKSCR,Arrhythmia Risk Score,65,SCORE,65,65.0,SCORE,,DERIVED,,ALGORITHM,2,2026-03-22,1,MEXILETINE .0.1 uM,TREATMENT
CIPA001,EG,CIPA001-C-EL1,24,chipC_ch2_MEXIL_0_1uM,MORPHIN,Morphology Instability,0.9994,SCORE,0.9994,0.9994,SCORE,,DERIVED,,ALGORITHM,2,2026-03-22,1,MEXILETINE .0.1 uM,TREATMENT
CIPA001,EG,CIPA001-C-EL1,25,chipC_ch2_MEXIL_0_1uM,EADPCT,EAD Incidence,0.0000,%,0.0000,0.0,%,,DERIVED,,ALGORITHM,2,2026-03-22,1,MEXILETINE .0.1 uM,TREATMENT
CIPA001,EG,CIPA001-C-EL2,71,chipC_ch2_MEXIL_100uM_2,FPD,FPD,289.5814,ms,289.5814,289.5814,ms,,DERIVED,,ALGORITHM,6,2026-03-22,1,MEXILETINE .100 uM,TREATMENT
CIPA001,EG,CIPA001-C-EL2,72,chipC_ch2_MEXIL_100uM_2,FPDCF,FPDcF,181.3800,ms,181.3800,181.38,ms,,DERIVED,,ALGORITHM,6,2026-03-22,1,MEXILETINE .100 uM,TREATMENT
CIPA001,EG,CIPA001-C-EL2,73,chipC_ch2_MEXIL_100uM_2,BP,Beat Period,4116.6429,ms,4116.6429,4116.6429,ms,,DERIVED,,ALGORITHM,6,2026-03-22,1,MEXILETINE .100 uM,TREATMENT
CIPA001,EG,CIPA001-C-EL2,74,chipC_ch2_MEXIL_100uM_2,SPIKEAM,Spike Amplitude,93.7829,uV,93.7829,93.7829,uV,,DERIVED,,ALGORITHM,6,2026-03-22,1,MEXILETINE .100 uM,TREATMENT
CIPA001,EG,CIPA001-C-EL2,75,chipC_ch2_MEXIL_100uM_2,FPDCONF,FPD Confidence,0.6830,SCORE,0.6830,0.683,SCORE,,DERIVED,,ALGORITHM,6,2026-03-22,1,MEXILETINE .100 uM,TREATMENT
CIPA001,EG,CIPA001-C-EL2,76,chipC_ch2_MEXIL_100uM_2,INTVL,Heart Rate,14.5750,beats/min,14.5750,14.575,beats/min,,DERIVED,,ALGORITHM,6,2026-03-22,1,MEXILETINE .100 uM,TREATMENT
CIPA001,EG,CIPA001-C-EL2,77,chipC_ch2_MEXIL_100uM_2,QCGRADE,QC Grade,D,,D,,,,DERIVED,,ALGORITHM,6,2026-03-22,1,MEXILETINE .100 uM,TREATMENT
CIPA001,EG,CIPA001-C-EL2,78,chipC_ch2_MEXIL_100uM_2,RSKSCR,Arrhythmia Risk Score,40,SCORE,40,40.0,SCORE,,DERIVED,,ALGORITHM,6,2026-03-22,1,MEXILETINE .100 uM,TREATMENT
CIPA001,EG,CIPA001-C-EL2,79,chipC_ch2_MEXIL_100uM_2,MORPHIN,Morphology Instability,0.2417,SCORE,0.2417,0.2417,SCORE,,DERIVED,,ALGORITHM,6,2026-03-22,1,MEXILETINE .100 uM,TREATMENT
CIPA001,EG,CIPA001-C-EL2,80,chipC_ch2_MEXIL_100uM_2,EADPCT,EAD Incidence,0.0000,%,0.0000,0.0,%,,DERIVED,,ALGORITHM,6,2026-03-22,1,MEXILETINE .100 uM,TREATMENT
CIPA001,EG,CIPA001-C-EL2,81,chipC_ch3_MEXIL_10uM,FPD,FPD,313.1887,ms,313.1887,313.1887,ms,,DERIVED,,ALGORITHM,7,2026-03-22,1,MEXILETINE .10 uM,TREATMENT
CIPA001,EG,CIPA001-C-EL2,82,chipC_ch3_MEXIL_10uM,FPDCF,FPDcF,218.3070,ms,218.3070,218.307,ms,,DERIVED,,ALGORITHM,7,2026-03-22,1,MEXILETINE .10 uM,TREATMENT
CIPA001,EG,CIPA001-C-EL2,83,chipC_ch3_MEXIL_10uM,BP,Beat Period,3373.9135,ms,3373.9135,3373.9135,ms,,DERIVED,,ALGORITHM,7,2026-03-22,1,MEXILETINE .10 uM,TREATMENT
CIPA001,EG,CIPA001-C-EL2,84,chipC_ch3_MEXIL_10uM,SPIKEAM,Spike Amplitude,697.0639,uV,697.0639,697.0639,uV,,DERIVED,,ALGORITHM,7,2026-03-22,1,MEXILETINE .10 uM,TREATMENT
CIPA001,EG,CIPA001-C-EL2,85,chipC_ch3_MEXIL_10uM,FPDCONF,FPD Confidence,0.8663,SCORE,0.8663,0.8663,SCORE,,DERIVED,,ALGORITHM,7,2026-03-22,1,MEXILETINE .10 uM,TREATMENT
CIPA001,EG,CIPA001-C-EL2,86,chipC_ch3_MEXIL_10uM,INTVL,Heart Rate,17.7835,beats/min,17.7835,17.7835,beats/min,,DERIVED,,ALGORITHM,7,2026-03-22,1,MEXILETINE .10 uM,TREATMENT
CIPA001,EG,CIPA001-C-EL2,87,chipC_ch3_MEXIL_10uM,QCGRADE,QC Grade,D,,D,,,,DERIVED,,ALGORITHM,7,2026-03-22,1,MEXILETINE .10 uM,TREATMENT
CIPA001,EG,CIPA001-C-EL2,88,chipC_ch3_MEXIL_10uM,RSKSCR,Arrhythmia Risk Score,73,SCORE,73,73.0,SCORE,,DERIVED,,ALGORITHM,7,2026-03-22,1,MEXILETINE .10 uM,TREATMENT
CIPA001,EG,CIPA001-C-EL2,89,chipC_ch3_MEXIL_10uM,MORPHIN,Morphology Instability,0.1300,SCORE,0.1300,0.13,SCORE,,DERIVED,,ALGORITHM,7,2026-03-22,1,MEXILETINE .10 uM,TREATMENT
CIPA001,EG,CIPA001-C-EL2,90,chipC_ch3_MEXIL_10uM,EADPCT,EAD Incidence,37.7358,%,37.7358,37.7358,%,,DERIVED,,ALGORITHM,7,2026-03-22,1,MEXILETINE .10 uM,TREATMENT
CIPA001,EG,CIPA001-C-EL1,26,chipC_ch3_MEXIL_1uM,FPD,FPD,449.0208,ms,449.0208,449.0208,ms,,DERIVED,,ALGORITHM,3,2026-03-22,1,MEXILETINE .1 uM,TREATMENT
CIPA001,EG,CIPA001-C-EL1,27,chipC_ch3_MEXIL_1uM,FPDCF,FPDcF,445.2075,ms,445.2075,445.2075,ms,,DERIVED,,ALGORITHM,3,2026-03-22,1,MEXILETINE .1 uM,TREATMENT
CIPA001,EG,CIPA001-C-EL1,28,chipC_ch3_MEXIL_1uM,BP,Beat Period,3646.3854,ms,3646.3854,3646.3854,ms,,DERIVED,,ALGORITHM,3,2026-03-22,1,MEXILETINE .1 uM,TREATMENT
CIPA001,EG,CIPA001-C-EL1,29,chipC_ch3_MEXIL_1uM,SPIKEAM,Spike Amplitude,520.8304,uV,520.8304,520.8304,uV,,DERIVED,,ALGORITHM,3,2026-03-22,1,MEXILETINE .1 uM,TREATMENT
CIPA001,EG,CIPA001-C-EL1,30,chipC_ch3_MEXIL_1uM,FPDCONF,FPD Confidence,0.6559,SCORE,0.6559,0.6559,SCORE,,DERIVED,,ALGORITHM,3,2026-03-22,1,MEXILETINE .1 uM,TREATMENT
CIPA001,EG,CIPA001-C-EL1,31,chipC_ch3_MEXIL_1uM,INTVL,Heart Rate,16.4547,beats/min,16.4547,16.4547,beats/min,,DERIVED,,ALGORITHM,3,2026-03-22,1,MEXILETINE .1 uM,TREATMENT
CIPA001,EG,CIPA001-C-EL1,32,chipC_ch3_MEXIL_1uM,QCGRADE,QC Grade,D,,D,,,,DERIVED,,ALGORITHM,3,2026-03-22,1,MEXILETINE .1 uM,TREATMENT
CIPA001,EG,CIPA001-C-EL1,33,chipC_ch3_MEXIL_1uM,RSKSCR,Arrhythmia Risk Score,63,SCORE,63,63.0,SCORE,,DERIVED,,ALGORITHM,3,2026-03-22,1,MEXILETINE .1 uM,TREATMENT
CIPA001,EG,CIPA001-C-EL1,34,chipC_ch3_MEXIL_1uM,MORPHIN,Morphology Instability,0.3191,SCORE,0.3191,0.3191,SCORE,,DERIVED,,ALGORITHM,3,2026-03-22,1,MEXILETINE .1 uM,TREATMENT
CIPA001,EG,CIPA001-C-EL1,35,chipC_ch3_MEXIL_1uM,EADPCT,EAD Incidence,52.0833,%,52.0833,52.0833,%,,DERIVED,,ALGORITHM,3,2026-03-22,1,MEXILETINE .1 uM,TREATMENT
CIPA001,EG,CIPA001-C-EL2,91,chipC_ch3_MEXIL_2_5uM,FPD,FPD,338.5063,ms,338.5063,338.5062,ms,,DERIVED,,ALGORITHM,8,2026-03-22,1,MEXILETINE .2.5 uM,TREATMENT
CIPA001,EG,CIPA001-C-EL2,92,chipC_ch3_MEXIL_2_5uM,FPDCF,FPDcF,282.2976,ms,282.2976,282.2976,ms,,DERIVED,,ALGORITHM,8,2026-03-22,1,MEXILETINE .2.5 uM,TREATMENT
CIPA001,EG,CIPA001-C-EL2,93,chipC_ch3_MEXIL_2_5uM,BP,Beat Period,2211.6125,ms,2211.6125,2211.6125,ms,,DERIVED,,ALGORITHM,8,2026-03-22,1,MEXILETINE .2.5 uM,TREATMENT
CIPA001,EG,CIPA001-C-EL2,94,chipC_ch3_MEXIL_2_5uM,SPIKEAM,Spike Amplitude,338.4312,uV,338.4312,338.4312,uV,,DERIVED,,ALGORITHM,8,2026-03-22,1,MEXILETINE .2.5 uM,TREATMENT
CIPA001,EG,CIPA001-C-EL2,95,chipC_ch3_MEXIL_2_5uM,FPDCONF,FPD Confidence,0.8586,SCORE,0.8586,0.8586,SCORE,,DERIVED,,ALGORITHM,8,2026-03-22,1,MEXILETINE .2.5 uM,TREATMENT
CIPA001,EG,CIPA001-C-EL2,96,chipC_ch3_MEXIL_2_5uM,INTVL,Heart Rate,27.1295,beats/min,27.1295,27.1295,beats/min,,DERIVED,,ALGORITHM,8,2026-03-22,1,MEXILETINE .2.5 uM,TREATMENT
CIPA001,EG,CIPA001-C-EL2,97,chipC_ch3_MEXIL_2_5uM,QCGRADE,QC Grade,D,,D,,,,DERIVED,,ALGORITHM,8,2026-03-22,1,MEXILETINE .2.5 uM,TREATMENT
CIPA001,EG,CIPA001-C-EL2,98,chipC_ch3_MEXIL_2_5uM,RSKSCR,Arrhythmia Risk Score,84,SCORE,84,84.0,SCORE,,DERIVED,,ALGORITHM,8,2026-03-22,1,MEXILETINE .2.5 uM,TREATMENT
CIPA001,EG,CIPA001-C-EL2,99,chipC_ch3_MEXIL_2_5uM,MORPHIN,Morphology Instability,0.1963,SCORE,0.1963,0.1963,SCORE,,DERIVED,,ALGORITHM,8,2026-03-22,1,MEXILETINE .2.5 uM,TREATMENT
CIPA001,EG,CIPA001-C-EL2,100,chipC_ch3_MEXIL_2_5uM,EADPCT,EAD Incidence,47.5000,%,47.5000,47.5,%,,DERIVED,,ALGORITHM,8,2026-03-22,1,MEXILETINE .2.5 uM,TREATMENT
CIPA001,EG,CIPA001-C-EL1,36,chipC_ch3_MEXIL_50uM,FPD,FPD,341.6974,ms,341.6974,341.6974,ms,,DERIVED,,ALGORITHM,4,2026-03-22,1,MEXILETINE .50 uM,TREATMENT
CIPA001,EG,CIPA001-C-EL1,37,chipC_ch3_MEXIL_50uM,FPDCF,FPDcF,218.4343,ms,218.4343,218.4343,ms,,DERIVED,,ALGORITHM,4,2026-03-22,1,MEXILETINE .50 uM,TREATMENT
CIPA001,EG,CIPA001-C-EL1,38,chipC_ch3_MEXIL_50uM,BP,Beat Period,4631.4459,ms,4631.4459,4631.4459,ms,,DERIVED,,ALGORITHM,4,2026-03-22,1,MEXILETINE .50 uM,TREATMENT
CIPA001,EG,CIPA001-C-EL1,39,chipC_ch3_MEXIL_50uM,SPIKEAM,Spike Amplitude,1988.8310,uV,1988.8310,1988.831,uV,,DERIVED,,ALGORITHM,4,2026-03-22,1,MEXILETINE .50 uM,TREATMENT
CIPA001,EG,CIPA001-C-EL1,40,chipC_ch3_MEXIL_50uM,FPDCONF,FPD Confidence,0.8468,SCORE,0.8468,0.8468,SCORE,,DERIVED,,ALGORITHM,4,2026-03-22,1,MEXILETINE .50 uM,TREATMENT
CIPA001,EG,CIPA001-C-EL1,41,chipC_ch3_MEXIL_50uM,INTVL,Heart Rate,12.9549,beats/min,12.9549,12.9549,beats/min,,DERIVED,,ALGORITHM,4,2026-03-22,1,MEXILETINE .50 uM,TREATMENT
CIPA001,EG,CIPA001-C-EL1,42,chipC_ch3_MEXIL_50uM,QCGRADE,QC Grade,C,,C,,,,DERIVED,,ALGORITHM,4,2026-03-22,1,MEXILETINE .50 uM,TREATMENT
CIPA001,EG,CIPA001-C-EL1,43,chipC_ch3_MEXIL_50uM,RSKSCR,Arrhythmia Risk Score,66,SCORE,66,66.0,SCORE,,DERIVED,,ALGORITHM,4,2026-03-22,1,MEXILETINE .50 uM,TREATMENT
CIPA001,EG,CIPA001-C-EL1,44,chipC_ch3_MEXIL_50uM,MORPHIN,Morphology Instability,0.1613,SCORE,0.1613,0.1613,SCORE,,DERIVED,,ALGORITHM,4,2026-03-22,1,MEXILETINE .50 uM,TREATMENT
CIPA001,EG,CIPA001-C-EL1,45,chipC_ch3_MEXIL_50uM,EADPCT,EAD Incidence,42.1053,%,42.1053,42.1053,%,,DERIVED,,ALGORITHM,4,2026-03-22,1,MEXILETINE .50 uM,TREATMENT
CIPA001,EG,CIPA001-C-EL1,46,chipC_ch3_baseline,FPD,FPD,355.5417,ms,355.5417,355.5417,ms,,DERIVED,Y,ALGORITHM,5,2026-03-22,1,BASELINE,BASELINE
CIPA001,EG,CIPA001-C-EL1,47,chipC_ch3_baseline,FPDCF,FPDcF,211.7523,ms,211.7523,211.7523,ms,,DERIVED,Y,ALGORITHM,5,2026-03-22,1,BASELINE,BASELINE
CIPA001,EG,CIPA001-C-EL1,48,chipC_ch3_baseline,BP,Beat Period,4974.2000,ms,4974.2000,4974.2,ms,,DERIVED,Y,ALGORITHM,5,2026-03-22,1,BASELINE,BASELINE
CIPA001,EG,CIPA001-C-EL1,49,chipC_ch3_baseline,SPIKEAM,Spike Amplitude,3363.1248,uV,3363.1248,3363.1248,uV,,DERIVED,Y,ALGORITHM,5,2026-03-22,1,BASELINE,BASELINE
CIPA001,EG,CIPA001-C-EL1,50,chipC_ch3_baseline,FPDCONF,FPD Confidence,0.8952,SCORE,0.8952,0.8952,SCORE,,DERIVED,Y,ALGORITHM,5,2026-03-22,1,BASELINE,BASELINE
CIPA001,EG,CIPA001-C-EL1,51,chipC_ch3_baseline,INTVL,Heart Rate,12.0622,beats/min,12.0622,12.0622,beats/min,,DERIVED,Y,ALGORITHM,5,2026-03-22,1,BASELINE,BASELINE
CIPA001,EG,CIPA001-C-EL1,52,chipC_ch3_baseline,QCGRADE,QC Grade,A,,A,,,,DERIVED,Y,ALGORITHM,5,2026-03-22,1,BASELINE,BASELINE
CIPA001,EG,CIPA001-C-EL1,53,chipC_ch3_baseline,RSKSCR,Arrhythmia Risk Score,0,SCORE,0,0.0,SCORE,,DERIVED,Y,ALGORITHM,5,2026-03-22,1,BASELINE,BASELINE
CIPA001,EG,CIPA001-C-EL1,54,chipC_ch3_baseline,MORPHIN,Morphology Instability,0.1248,SCORE,0.1248,0.1248,SCORE,,DERIVED,Y,ALGORITHM,5,2026-03-22,1,BASELINE,BASELINE
CIPA001,EG,CIPA001-C-EL1,55,chipC_ch3_baseline,EADPCT,EAD Incidence,22.2222,%,22.2222,22.2222,%,,DERIVED,Y,ALGORITHM,5,2026-03-22,1,BASELINE,BASELINE
CIPA001,EG,CIPA001-D-EL1,1,chipD_ch2_ALFUS_1000nM,FPD,FPD,500.5814,ms,500.5814,500.5814,ms,,DERIVED,,ALGORITHM,1,2026-03-22,1,ALFUZOSIN .1000 nM,TREATMENT
CIPA001,EG,CIPA001-D-EL1,2,chipD_ch2_ALFUS_1000nM,FPDCF,FPDcF,396.3341,ms,396.3341,396.3341,ms,,DERIVED,,ALGORITHM,1,2026-03-22,1,ALFUZOSIN .1000 nM,TREATMENT
CIPA001,EG,CIPA001-D-EL1,3,chipD_ch2_ALFUS_1000nM,BP,Beat Period,2069.9529,ms,2069.9529,2069.9529,ms,,DERIVED,,ALGORITHM,1,2026-03-22,1,ALFUZOSIN .1000 nM,TREATMENT
CIPA001,EG,CIPA001-D-EL1,4,chipD_ch2_ALFUS_1000nM,SPIKEAM,Spike Amplitude,1026.5428,uV,1026.5428,1026.5428,uV,,DERIVED,,ALGORITHM,1,2026-03-22,1,ALFUZOSIN .1000 nM,TREATMENT
CIPA001,EG,CIPA001-D-EL1,5,chipD_ch2_ALFUS_1000nM,FPDCONF,FPD Confidence,0.7144,SCORE,0.7144,0.7144,SCORE,,DERIVED,,ALGORITHM,1,2026-03-22,1,ALFUZOSIN .1000 nM,TREATMENT
CIPA001,EG,CIPA001-D-EL1,6,chipD_ch2_ALFUS_1000nM,INTVL,Heart Rate,28.9862,beats/min,28.9862,28.9862,beats/min,,DERIVED,,ALGORITHM,1,2026-03-22,1,ALFUZOSIN .1000 nM,TREATMENT
CIPA001,EG,CIPA001-D-EL1,7,chipD_ch2_ALFUS_1000nM,QCGRADE,QC Grade,A,,A,,,,DERIVED,,ALGORITHM,1,2026-03-22,1,ALFUZOSIN .1000 nM,TREATMENT
CIPA001,EG,CIPA001-D-EL1,8,chipD_ch2_ALFUS_1000nM,RSKSCR,Arrhythmia Risk Score,19,SCORE,19,19.0,SCORE,,DERIVED,,ALGORITHM,1,2026-03-22,1,ALFUZOSIN .1000 nM,TREATMENT
CIPA001,EG,CIPA001-D-EL1,9,chipD_ch2_ALFUS_1000nM,MORPHIN,Morphology Instability,0.1334,SCORE,0.1334,0.1334,SCORE,,DERIVED,,ALGORITHM,1,2026-03-22,1,ALFUZOSIN .1000 nM,TREATMENT
CIPA001,EG,CIPA001-D-EL1,10,chipD_ch2_ALFUS_1000nM,EADPCT,EAD Incidence,0.0000,%,0.0000,0.0,%,,DERIVED,,ALGORITHM,1,2026-03-22,1,ALFUZOSIN .1000 nM,TREATMENT
CIPA001,EG,CIPA001-D-EL2,1,chipD_ch2_ALFUS_100nM_2,FPD,FPD,437.2933,ms,437.2933,437.2933,ms,,DERIVED,,ALGORITHM,1,2026-03-22,1,ALFUZOSIN .100 nM,TREATMENT
CIPA001,EG,CIPA001-D-EL2,2,chipD_ch2_ALFUS_100nM_2,FPDCF,FPDcF,366.6399,ms,366.6399,366.6399,ms,,DERIVED,,ALGORITHM,1,2026-03-22,1,ALFUZOSIN .100 nM,TREATMENT
CIPA001,EG,CIPA001-D-EL2,3,chipD_ch2_ALFUS_100nM_2,BP,Beat Period,1719.0048,ms,1719.0048,1719.0048,ms,,DERIVED,,ALGORITHM,1,2026-03-22,1,ALFUZOSIN .100 nM,TREATMENT
CIPA001,EG,CIPA001-D-EL2,4,chipD_ch2_ALFUS_100nM_2,SPIKEAM,Spike Amplitude,600.7852,uV,600.7852,600.7852,uV,,DERIVED,,ALGORITHM,1,2026-03-22,1,ALFUZOSIN .100 nM,TREATMENT
CIPA001,EG,CIPA001-D-EL2,5,chipD_ch2_ALFUS_100nM_2,FPDCONF,FPD Confidence,0.9056,SCORE,0.9056,0.9056,SCORE,,DERIVED,,ALGORITHM,1,2026-03-22,1,ALFUZOSIN .100 nM,TREATMENT
CIPA001,EG,CIPA001-D-EL2,6,chipD_ch2_ALFUS_100nM_2,INTVL,Heart Rate,34.9039,beats/min,34.9039,34.9039,beats/min,,DERIVED,,ALGORITHM,1,2026-03-22,1,ALFUZOSIN .100 nM,TREATMENT
CIPA001,EG,CIPA001-D-EL2,7,chipD_ch2_ALFUS_100nM_2,QCGRADE,QC Grade,B,,B,,,,DERIVED,,ALGORITHM,1,2026-03-22,1,ALFUZOSIN .100 nM,TREATMENT
CIPA001,EG,CIPA001-D-EL2,8,chipD_ch2_ALFUS_100nM_2,RSKSCR,Arrhythmia Risk Score,16,SCORE,16,16.0,SCORE,,DERIVED,,ALGORITHM,1,2026-03-22,1,ALFUZOSIN .100 nM,TREATMENT
CIPA001,EG,CIPA001-D-EL2,9,chipD_ch2_ALFUS_100nM_2,MORPHIN,Morphology Instability,0.1593,SCORE,0.1593,0.1593,SCORE,,DERIVED,,ALGORITHM,1,2026-03-22,1,ALFUZOSIN .100 nM,TREATMENT
CIPA001,EG,CIPA001-D-EL2,10,chipD_ch2_ALFUS_100nM_2,EADPCT,EAD Incidence,1.9231,%,1.9231,1.9231,%,,DERIVED,,ALGORITHM,1,2026-03-22,1,ALFUZOSIN .100 nM,TREATMENT
CIPA001,EG,CIPA001-D-EL2,11,chipD_ch2_ALFUS_10nM,FPD,FPD,513.9402,ms,513.9402,513.9402,ms,,DERIVED,,ALGORITHM,2,2026-03-22,1,ALFUZOSIN .10 nM,TREATMENT
CIPA001,EG,CIPA001-D-EL2,12,chipD_ch2_ALFUS_10nM,FPDCF,FPDcF,415.8721,ms,415.8721,415.8721,ms,,DERIVED,,ALGORITHM,2,2026-03-22,1,ALFUZOSIN .10 nM,TREATMENT
CIPA001,EG,CIPA001-D-EL2,13,chipD_ch2_ALFUS_10nM,BP,Beat Period,1945.4620,ms,1945.4620,1945.462,ms,,DERIVED,,ALGORITHM,2,2026-03-22,1,ALFUZOSIN .10 nM,TREATMENT
CIPA001,EG,CIPA001-D-EL2,14,chipD_ch2_ALFUS_10nM,SPIKEAM,Spike Amplitude,824.2579,uV,824.2579,824.2579,uV,,DERIVED,,ALGORITHM,2,2026-03-22,1,ALFUZOSIN .10 nM,TREATMENT
CIPA001,EG,CIPA001-D-EL2,15,chipD_ch2_ALFUS_10nM,FPDCONF,FPD Confidence,0.9027,SCORE,0.9027,0.9027,SCORE,,DERIVED,,ALGORITHM,2,2026-03-22,1,ALFUZOSIN .10 nM,TREATMENT
CIPA001,EG,CIPA001-D-EL2,16,chipD_ch2_ALFUS_10nM,INTVL,Heart Rate,30.8410,beats/min,30.8410,30.841,beats/min,,DERIVED,,ALGORITHM,2,2026-03-22,1,ALFUZOSIN .10 nM,TREATMENT
CIPA001,EG,CIPA001-D-EL2,17,chipD_ch2_ALFUS_10nM,QCGRADE,QC Grade,B,,B,,,,DERIVED,,ALGORITHM,2,2026-03-22,1,ALFUZOSIN .10 nM,TREATMENT
CIPA001,EG,CIPA001-D-EL2,18,chipD_ch2_ALFUS_10nM,RSKSCR,Arrhythmia Risk Score,17,SCORE,17,17.0,SCORE,,DERIVED,,ALGORITHM,2,2026-03-22,1,ALFUZOSIN .10 nM,TREATMENT
CIPA001,EG,CIPA001-D-EL2,19,chipD_ch2_ALFUS_10nM,MORPHIN,Morphology Instability,0.1697,SCORE,0.1697,0.1697,SCORE,,DERIVED,,ALGORITHM,2,2026-03-22,1,ALFUZOSIN .10 nM,TREATMENT
CIPA001,EG,CIPA001-D-EL2,20,chipD_ch2_ALFUS_10nM,EADPCT,EAD Incidence,0.0000,%,0.0000,0.0,%,,DERIVED,,ALGORITHM,2,2026-03-22,1,ALFUZOSIN .10 nM,TREATMENT
CIPA001,EG,CIPA001-D-EL2,21,chipD_ch2_ALFUS_1nM,FPD,FPD,597.5149,ms,597.5149,597.5149,ms,,DERIVED,,ALGORITHM,3,2026-03-22,1,ALFUZOSIN .1 nM,TREATMENT
CIPA001,EG,CIPA001-D-EL2,22,chipD_ch2_ALFUS_1nM,FPDCF,FPDcF,439.5047,ms,439.5047,439.5047,ms,,DERIVED,,ALGORITHM,3,2026-03-22,1,ALFUZOSIN .1 nM,TREATMENT
CIPA001,EG,CIPA001-D-EL2,23,chipD_ch2_ALFUS_1nM,BP,Beat Period,2660.1716,ms,2660.1716,2660.1716,ms,,DERIVED,,ALGORITHM,3,2026-03-22,1,ALFUZOSIN .1 nM,TREATMENT
CIPA001,EG,CIPA001-D-EL2,24,chipD_ch2_ALFUS_1nM,SPIKEAM,Spike Amplitude,1061.1319,uV,1061.1319,1061.1319,uV,,DERIVED,,ALGORITHM,3,2026-03-22,1,ALFUZOSIN .1 nM,TREATMENT
CIPA001,EG,CIPA001-D-EL2,25,chipD_ch2_ALFUS_1nM,FPDCONF,FPD Confidence,0.8367,SCORE,0.8367,0.8367,SCORE,,DERIVED,,ALGORITHM,3,2026-03-22,1,ALFUZOSIN .1 nM,TREATMENT
CIPA001,EG,CIPA001-D-EL2,26,chipD_ch2_ALFUS_1nM,INTVL,Heart Rate,22.5549,beats/min,22.5549,22.5549,beats/min,,DERIVED,,ALGORITHM,3,2026-03-22,1,ALFUZOSIN .1 nM,TREATMENT
CIPA001,EG,CIPA001-D-EL2,27,chipD_ch2_ALFUS_1nM,QCGRADE,QC Grade,B,,B,,,,DERIVED,,ALGORITHM,3,2026-03-22,1,ALFUZOSIN .1 nM,TREATMENT
CIPA001,EG,CIPA001-D-EL2,28,chipD_ch2_ALFUS_1nM,RSKSCR,Arrhythmia Risk Score,20,SCORE,20,20.0,SCORE,,DERIVED,,ALGORITHM,3,2026-03-22,1,ALFUZOSIN .1 nM,TREATMENT
CIPA001,EG,CIPA001-D-EL2,29,chipD_ch2_ALFUS_1nM,MORPHIN,Morphology Instability,0.1354,SCORE,0.1354,0.1354,SCORE,,DERIVED,,ALGORITHM,3,2026-03-22,1,ALFUZOSIN .1 nM,TREATMENT
CIPA001,EG,CIPA001-D-EL2,30,chipD_ch2_ALFUS_1nM,EADPCT,EAD Incidence,2.9851,%,2.9851,2.9851,%,,DERIVED,,ALGORITHM,3,2026-03-22,1,ALFUZOSIN .1 nM,TREATMENT
CIPA001,EG,CIPA001-D-EL2,31,chipD_ch2_ALFUS_300nM,FPD,FPD,532.8631,ms,532.8631,532.8631,ms,,DERIVED,,ALGORITHM,4,2026-03-22,1,ALFUZOSIN .300 nM,TREATMENT
CIPA001,EG,CIPA001-D-EL2,32,chipD_ch2_ALFUS_300nM,FPDCF,FPDcF,419.1699,ms,419.1699,419.1699,ms,,DERIVED,,ALGORITHM,4,2026-03-22,1,ALFUZOSIN .300 nM,TREATMENT
CIPA001,EG,CIPA001-D-EL2,33,chipD_ch2_ALFUS_300nM,BP,Beat Period,2097.3012,ms,2097.3012,2097.3012,ms,,DERIVED,,ALGORITHM,4,2026-03-22,1,ALFUZOSIN .300 nM,TREATMENT
CIPA001,EG,CIPA001-D-EL2,34,chipD_ch2_ALFUS_300nM,SPIKEAM,Spike Amplitude,149.9059,uV,149.9059,149.9059,uV,,DERIVED,,ALGORITHM,4,2026-03-22,1,ALFUZOSIN .300 nM,TREATMENT
CIPA001,EG,CIPA001-D-EL2,35,chipD_ch2_ALFUS_300nM,FPDCONF,FPD Confidence,0.7865,SCORE,0.7865,0.7865,SCORE,,DERIVED,,ALGORITHM,4,2026-03-22,1,ALFUZOSIN .300 nM,TREATMENT
CIPA001,EG,CIPA001-D-EL2,36,chipD_ch2_ALFUS_300nM,INTVL,Heart Rate,28.6082,beats/min,28.6082,28.6082,beats/min,,DERIVED,,ALGORITHM,4,2026-03-22,1,ALFUZOSIN .300 nM,TREATMENT
CIPA001,EG,CIPA001-D-EL2,37,chipD_ch2_ALFUS_300nM,QCGRADE,QC Grade,B,,B,,,,DERIVED,,ALGORITHM,4,2026-03-22,1,ALFUZOSIN .300 nM,TREATMENT
CIPA001,EG,CIPA001-D-EL2,38,chipD_ch2_ALFUS_300nM,RSKSCR,Arrhythmia Risk Score,43,SCORE,43,43.0,SCORE,,DERIVED,,ALGORITHM,4,2026-03-22,1,ALFUZOSIN .300 nM,TREATMENT
CIPA001,EG,CIPA001-D-EL2,39,chipD_ch2_ALFUS_300nM,MORPHIN,Morphology Instability,0.1944,SCORE,0.1944,0.1944,SCORE,,DERIVED,,ALGORITHM,4,2026-03-22,1,ALFUZOSIN .300 nM,TREATMENT
CIPA001,EG,CIPA001-D-EL2,40,chipD_ch2_ALFUS_300nM,EADPCT,EAD Incidence,30.9524,%,30.9524,30.9524,%,,DERIVED,,ALGORITHM,4,2026-03-22,1,ALFUZOSIN .300 nM,TREATMENT
CIPA001,EG,CIPA001-D-EL2,41,chipD_ch2_ALFUS_30nM_2,FPD,FPD,639.3257,ms,639.3257,639.3257,ms,,DERIVED,,ALGORITHM,5,2026-03-22,1,ALFUZOSIN .30 nM,TREATMENT
CIPA001,EG,CIPA001-D-EL2,42,chipD_ch2_ALFUS_30nM_2,FPDCF,FPDcF,542.9375,ms,542.9375,542.9375,ms,,DERIVED,,ALGORITHM,5,2026-03-22,1,ALFUZOSIN .30 nM,TREATMENT
CIPA001,EG,CIPA001-D-EL2,43,chipD_ch2_ALFUS_30nM_2,BP,Beat Period,1647.2222,ms,1647.2222,1647.2222,ms,,DERIVED,,ALGORITHM,5,2026-03-22,1,ALFUZOSIN .30 nM,TREATMENT
CIPA001,EG,CIPA001-D-EL2,44,chipD_ch2_ALFUS_30nM_2,SPIKEAM,Spike Amplitude,215.2389,uV,215.2389,215.2389,uV,,DERIVED,,ALGORITHM,5,2026-03-22,1,ALFUZOSIN .30 nM,TREATMENT
CIPA001,EG,CIPA001-D-EL2,45,chipD_ch2_ALFUS_30nM_2,FPDCONF,FPD Confidence,0.7815,SCORE,0.7815,0.7815,SCORE,,DERIVED,,ALGORITHM,5,2026-03-22,1,ALFUZOSIN .30 nM,TREATMENT
CIPA001,EG,CIPA001-D-EL2,46,chipD_ch2_ALFUS_30nM_2,INTVL,Heart Rate,36.4250,beats/min,36.4250,36.425,beats/min,,DERIVED,,ALGORITHM,5,2026-03-22,1,ALFUZOSIN .30 nM,TREATMENT
CIPA001,EG,CIPA001-D-EL2,47,chipD_ch2_ALFUS_30nM_2,QCGRADE,QC Grade,D,,D,,,,DERIVED,,ALGORITHM,5,2026-03-22,1,ALFUZOSIN .30 nM,TREATMENT
CIPA001,EG,CIPA001-D-EL2,48,chipD_ch2_ALFUS_30nM_2,RSKSCR,Arrhythmia Risk Score,29,SCORE,29,29.0,SCORE,,DERIVED,,ALGORITHM,5,2026-03-22,1,ALFUZOSIN .30 nM,TREATMENT
CIPA001,EG,CIPA001-D-EL2,49,chipD_ch2_ALFUS_30nM_2,MORPHIN,Morphology Instability,0.1981,SCORE,0.1981,0.1981,SCORE,,DERIVED,,ALGORITHM,5,2026-03-22,1,ALFUZOSIN .30 nM,TREATMENT
CIPA001,EG,CIPA001-D-EL2,50,chipD_ch2_ALFUS_30nM_2,EADPCT,EAD Incidence,0.0000,%,0.0000,0.0,%,,DERIVED,,ALGORITHM,5,2026-03-22,1,ALFUZOSIN .30 nM,TREATMENT
CIPA001,EG,CIPA001-D-EL1,11,chipD_ch2_baseline,FPD,FPD,672.7188,ms,672.7188,672.7188,ms,,DERIVED,Y,ALGORITHM,2,2026-03-22,1,BASELINE,BASELINE
CIPA001,EG,CIPA001-D-EL1,12,chipD_ch2_baseline,FPDCF,FPDcF,457.3385,ms,457.3385,457.3385,ms,,DERIVED,Y,ALGORITHM,2,2026-03-22,1,BASELINE,BASELINE
CIPA001,EG,CIPA001-D-EL1,13,chipD_ch2_baseline,BP,Beat Period,3394.8333,ms,3394.8333,3394.8333,ms,,DERIVED,Y,ALGORITHM,2,2026-03-22,1,BASELINE,BASELINE
CIPA001,EG,CIPA001-D-EL1,14,chipD_ch2_baseline,SPIKEAM,Spike Amplitude,2911.4620,uV,2911.4620,2911.462,uV,,DERIVED,Y,ALGORITHM,2,2026-03-22,1,BASELINE,BASELINE
CIPA001,EG,CIPA001-D-EL1,15,chipD_ch2_baseline,FPDCONF,FPD Confidence,0.8606,SCORE,0.8606,0.8606,SCORE,,DERIVED,Y,ALGORITHM,2,2026-03-22,1,BASELINE,BASELINE
CIPA001,EG,CIPA001-D-EL1,16,chipD_ch2_baseline,INTVL,Heart Rate,17.6739,beats/min,17.6739,17.6739,beats/min,,DERIVED,Y,ALGORITHM,2,2026-03-22,1,BASELINE,BASELINE
CIPA001,EG,CIPA001-D-EL1,17,chipD_ch2_baseline,QCGRADE,QC Grade,B,,B,,,,DERIVED,Y,ALGORITHM,2,2026-03-22,1,BASELINE,BASELINE
CIPA001,EG,CIPA001-D-EL1,18,chipD_ch2_baseline,RSKSCR,Arrhythmia Risk Score,0,SCORE,0,0.0,SCORE,,DERIVED,Y,ALGORITHM,2,2026-03-22,1,BASELINE,BASELINE
CIPA001,EG,CIPA001-D-EL1,19,chipD_ch2_baseline,MORPHIN,Morphology Instability,0.1115,SCORE,0.1115,0.1115,SCORE,,DERIVED,Y,ALGORITHM,2,2026-03-22,1,BASELINE,BASELINE
CIPA001,EG,CIPA001-D-EL1,20,chipD_ch2_baseline,EADPCT,EAD Incidence,0.0000,%,0.0000,0.0,%,,DERIVED,Y,ALGORITHM,2,2026-03-22,1,BASELINE,BASELINE
CIPA001,EG,CIPA001-E-EL1,1,chipE_ch1_DOFETILIDE_0_3nM,FPD,FPD,269.3942,ms,269.3942,269.3942,ms,,DERIVED,,ALGORITHM,1,2026-03-22,1,DOFETILIDE .0.3 nM,TREATMENT
CIPA001,EG,CIPA001-E-EL1,2,chipE_ch1_DOFETILIDE_0_3nM,FPDCF,FPDcF,183.0025,ms,183.0025,183.0025,ms,,DERIVED,,ALGORITHM,1,2026-03-22,1,DOFETILIDE .0.3 nM,TREATMENT
CIPA001,EG,CIPA001-E-EL1,3,chipE_ch1_DOFETILIDE_0_3nM,BP,Beat Period,3260.1176,ms,3260.1176,3260.1176,ms,,DERIVED,,ALGORITHM,1,2026-03-22,1,DOFETILIDE .0.3 nM,TREATMENT
CIPA001,EG,CIPA001-E-EL1,4,chipE_ch1_DOFETILIDE_0_3nM,SPIKEAM,Spike Amplitude,1819.6312,uV,1819.6312,1819.6312,uV,,DERIVED,,ALGORITHM,1,2026-03-22,1,DOFETILIDE .0.3 nM,TREATMENT
CIPA001,EG,CIPA001-E-EL1,5,chipE_ch1_DOFETILIDE_0_3nM,FPDCONF,FPD Confidence,0.9093,SCORE,0.9093,0.9093,SCORE,,DERIVED,,ALGORITHM,1,2026-03-22,1,DOFETILIDE .0.3 nM,TREATMENT
CIPA001,EG,CIPA001-E-EL1,6,chipE_ch1_DOFETILIDE_0_3nM,INTVL,Heart Rate,18.4042,beats/min,18.4042,18.4042,beats/min,,DERIVED,,ALGORITHM,1,2026-03-22,1,DOFETILIDE .0.3 nM,TREATMENT
CIPA001,EG,CIPA001-E-EL1,7,chipE_ch1_DOFETILIDE_0_3nM,QCGRADE,QC Grade,B,,B,,,,DERIVED,,ALGORITHM,1,2026-03-22,1,DOFETILIDE .0.3 nM,TREATMENT
CIPA001,EG,CIPA001-E-EL1,8,chipE_ch1_DOFETILIDE_0_3nM,RSKSCR,Arrhythmia Risk Score,19,SCORE,19,19.0,SCORE,,DERIVED,,ALGORITHM,1,2026-03-22,1,DOFETILIDE .0.3 nM,TREATMENT
CIPA001,EG,CIPA001-E-EL1,9,chipE_ch1_DOFETILIDE_0_3nM,MORPHIN,Morphology Instability,0.1141,SCORE,0.1141,0.1141,SCORE,,DERIVED,,ALGORITHM,1,2026-03-22,1,DOFETILIDE .0.3 nM,TREATMENT
CIPA001,EG,CIPA001-E-EL1,10,chipE_ch1_DOFETILIDE_0_3nM,EADPCT,EAD Incidence,0.0000,%,0.0000,0.0,%,,DERIVED,,ALGORITHM,1,2026-03-22,1,DOFETILIDE .0.3 nM,TREATMENT
CIPA001,EG,CIPA001-E-EL2,1,chipE_ch1_DOFETILIDE_10nM_2,FPD,FPD,225.6417,ms,225.6417,225.6417,ms,,DERIVED,,ALGORITHM,1,2026-03-22,1,DOFETILIDE .10 nM,TREATMENT
CIPA001,EG,CIPA001-E-EL2,2,chipE_ch1_DOFETILIDE_10nM_2,FPDCF,FPDcF,156.9169,ms,156.9169,156.9169,ms,,DERIVED,,ALGORITHM,1,2026-03-22,1,DOFETILIDE .10 nM,TREATMENT
CIPA001,EG,CIPA001-E-EL2,3,chipE_ch1_DOFETILIDE_10nM_2,BP,Beat Period,2991.3814,ms,2991.3814,2991.3814,ms,,DERIVED,,ALGORITHM,1,2026-03-22,1,DOFETILIDE .10 nM,TREATMENT
CIPA001,EG,CIPA001-E-EL2,4,chipE_ch1_DOFETILIDE_10nM_2,SPIKEAM,Spike Amplitude,131.9596,uV,131.9596,131.9596,uV,,DERIVED,,ALGORITHM,1,2026-03-22,1,DOFETILIDE .10 nM,TREATMENT
CIPA001,EG,CIPA001-E-EL2,5,chipE_ch1_DOFETILIDE_10nM_2,FPDCONF,FPD Confidence,0.8308,SCORE,0.8308,0.8308,SCORE,,DERIVED,,ALGORITHM,1,2026-03-22,1,DOFETILIDE .10 nM,TREATMENT
CIPA001,EG,CIPA001-E-EL2,6,chipE_ch1_DOFETILIDE_10nM_2,INTVL,Heart Rate,20.0576,beats/min,20.0576,20.0576,beats/min,,DERIVED,,ALGORITHM,1,2026-03-22,1,DOFETILIDE .10 nM,TREATMENT
CIPA001,EG,CIPA001-E-EL2,7,chipE_ch1_DOFETILIDE_10nM_2,QCGRADE,QC Grade,B,,B,,,,DERIVED,,ALGORITHM,1,2026-03-22,1,DOFETILIDE .10 nM,TREATMENT
CIPA001,EG,CIPA001-E-EL2,8,chipE_ch1_DOFETILIDE_10nM_2,RSKSCR,Arrhythmia Risk Score,10,SCORE,10,10.0,SCORE,,DERIVED,,ALGORITHM,1,2026-03-22,1,DOFETILIDE .10 nM,TREATMENT
CIPA001,EG,CIPA001-E-EL2,9,chipE_ch1_DOFETILIDE_10nM_2,MORPHIN,Morphology Instability,0.1291,SCORE,0.1291,0.1291,SCORE,,DERIVED,,ALGORITHM,1,2026-03-22,1,DOFETILIDE .10 nM,TREATMENT
CIPA001,EG,CIPA001-E-EL2,10,chipE_ch1_DOFETILIDE_10nM_2,EADPCT,EAD Incidence,0.0000,%,0.0000,0.0,%,,DERIVED,,ALGORITHM,1,2026-03-22,1,DOFETILIDE .10 nM,TREATMENT
CIPA001,EG,CIPA001-E-EL2,11,chipE_ch1_DOFETILIDE_1nM,FPD,FPD,297.1404,ms,297.1404,297.1404,ms,,DERIVED,,ALGORITHM,2,2026-03-22,1,DOFETILIDE .1 nM,TREATMENT
CIPA001,EG,CIPA001-E-EL2,12,chipE_ch1_DOFETILIDE_1nM,FPDCF,FPDcF,235.6718,ms,235.6718,235.6718,ms,,DERIVED,,ALGORITHM,2,2026-03-22,1,DOFETILIDE .1 nM,TREATMENT
CIPA001,EG,CIPA001-E-EL2,13,chipE_ch1_DOFETILIDE_1nM,BP,Beat Period,2012.9886,ms,2012.9886,2012.9886,ms,,DERIVED,,ALGORITHM,2,2026-03-22,1,DOFETILIDE .1 nM,TREATMENT
CIPA001,EG,CIPA001-E-EL2,14,chipE_ch1_DOFETILIDE_1nM,SPIKEAM,Spike Amplitude,154.0555,uV,154.0555,154.0555,uV,,DERIVED,,ALGORITHM,2,2026-03-22,1,DOFETILIDE .1 nM,TREATMENT
CIPA001,EG,CIPA001-E-EL2,15,chipE_ch1_DOFETILIDE_1nM,FPDCONF,FPD Confidence,0.7151,SCORE,0.7151,0.7151,SCORE,,DERIVED,,ALGORITHM,2,2026-03-22,1,DOFETILIDE .1 nM,TREATMENT
CIPA001,EG,CIPA001-E-EL2,16,chipE_ch1_DOFETILIDE_1nM,INTVL,Heart Rate,29.8064,beats/min,29.8064,29.8064,beats/min,,DERIVED,,ALGORITHM,2,2026-03-22,1,DOFETILIDE .1 nM,TREATMENT
CIPA001,EG,CIPA001-E-EL2,17,chipE_ch1_DOFETILIDE_1nM,QCGRADE,QC Grade,D,,D,,,,DERIVED,,ALGORITHM,2,2026-03-22,1,DOFETILIDE .1 nM,TREATMENT
CIPA001,EG,CIPA001-E-EL2,18,chipE_ch1_DOFETILIDE_1nM,RSKSCR,Arrhythmia Risk Score,10,SCORE,10,10.0,SCORE,,DERIVED,,ALGORITHM,2,2026-03-22,1,DOFETILIDE .1 nM,TREATMENT
CIPA001,EG,CIPA001-E-EL2,19,chipE_ch1_DOFETILIDE_1nM,MORPHIN,Morphology Instability,0.1183,SCORE,0.1183,0.1183,SCORE,,DERIVED,,ALGORITHM,2,2026-03-22,1,DOFETILIDE .1 nM,TREATMENT
CIPA001,EG,CIPA001-E-EL2,20,chipE_ch1_DOFETILIDE_1nM,EADPCT,EAD Incidence,0.0000,%,0.0000,0.0,%,,DERIVED,,ALGORITHM,2,2026-03-22,1,DOFETILIDE .1 nM,TREATMENT
CIPA001,EG,CIPA001-E-EL2,21,chipE_ch1_DOFETILIDE_2nM,FPD,FPD,279.3390,ms,279.3390,279.339,ms,,DERIVED,,ALGORITHM,3,2026-03-22,1,DOFETILIDE .2 nM,TREATMENT
CIPA001,EG,CIPA001-E-EL2,22,chipE_ch1_DOFETILIDE_2nM,FPDCF,FPDcF,194.3278,ms,194.3278,194.3278,ms,,DERIVED,,ALGORITHM,3,2026-03-22,1,DOFETILIDE .2 nM,TREATMENT
CIPA001,EG,CIPA001-E-EL2,23,chipE_ch1_DOFETILIDE_2nM,BP,Beat Period,2991.4746,ms,2991.4746,2991.4746,ms,,DERIVED,,ALGORITHM,3,2026-03-22,1,DOFETILIDE .2 nM,TREATMENT
CIPA001,EG,CIPA001-E-EL2,24,chipE_ch1_DOFETILIDE_2nM,SPIKEAM,Spike Amplitude,153.4809,uV,153.4809,153.4809,uV,,DERIVED,,ALGORITHM,3,2026-03-22,1,DOFETILIDE .2 nM,TREATMENT
CIPA001,EG,CIPA001-E-EL2,25,chipE_ch1_DOFETILIDE_2nM,FPDCONF,FPD Confidence,0.6529,SCORE,0.6529,0.6529,SCORE,,DERIVED,,ALGORITHM,3,2026-03-22,1,DOFETILIDE .2 nM,TREATMENT
CIPA001,EG,CIPA001-E-EL2,26,chipE_ch1_DOFETILIDE_2nM,INTVL,Heart Rate,20.0570,beats/min,20.0570,20.057,beats/min,,DERIVED,,ALGORITHM,3,2026-03-22,1,DOFETILIDE .2 nM,TREATMENT
CIPA001,EG,CIPA001-E-EL2,27,chipE_ch1_DOFETILIDE_2nM,QCGRADE,QC Grade,D,,D,,,,DERIVED,,ALGORITHM,3,2026-03-22,1,DOFETILIDE .2 nM,TREATMENT
CIPA001,EG,CIPA001-E-EL2,28,chipE_ch1_DOFETILIDE_2nM,RSKSCR,Arrhythmia Risk Score,12,SCORE,12,12.0,SCORE,,DERIVED,,ALGORITHM,3,2026-03-22,1,DOFETILIDE .2 nM,TREATMENT
CIPA001,EG,CIPA001-E-EL2,29,chipE_ch1_DOFETILIDE_2nM,MORPHIN,Morphology Instability,0.1139,SCORE,0.1139,0.1139,SCORE,,DERIVED,,ALGORITHM,3,2026-03-22,1,DOFETILIDE .2 nM,TREATMENT
CIPA001,EG,CIPA001-E-EL2,30,chipE_ch1_DOFETILIDE_2nM,EADPCT,EAD Incidence,0.0000,%,0.0000,0.0,%,,DERIVED,,ALGORITHM,3,2026-03-22,1,DOFETILIDE .2 nM,TREATMENT
CIPA001,EG,CIPA001-E-EL2,31,chipE_ch1_DOFETILIDE_3nM,FPD,FPD,358.3973,ms,358.3973,358.3973,ms,,DERIVED,,ALGORITHM,4,2026-03-22,1,DOFETILIDE .3 nM,TREATMENT
CIPA001,EG,CIPA001-E-EL2,32,chipE_ch1_DOFETILIDE_3nM,FPDCF,FPDcF,266.6496,ms,266.6496,266.6496,ms,,DERIVED,,ALGORITHM,4,2026-03-22,1,DOFETILIDE .3 nM,TREATMENT
CIPA001,EG,CIPA001-E-EL2,33,chipE_ch1_DOFETILIDE_3nM,BP,Beat Period,2453.2877,ms,2453.2877,2453.2877,ms,,DERIVED,,ALGORITHM,4,2026-03-22,1,DOFETILIDE .3 nM,TREATMENT
CIPA001,EG,CIPA001-E-EL2,34,chipE_ch1_DOFETILIDE_3nM,SPIKEAM,Spike Amplitude,671.1854,uV,671.1854,671.1854,uV,,DERIVED,,ALGORITHM,4,2026-03-22,1,DOFETILIDE .3 nM,TREATMENT
CIPA001,EG,CIPA001-E-EL2,35,chipE_ch1_DOFETILIDE_3nM,FPDCONF,FPD Confidence,0.7684,SCORE,0.7684,0.7684,SCORE,,DERIVED,,ALGORITHM,4,2026-03-22,1,DOFETILIDE .3 nM,TREATMENT
CIPA001,EG,CIPA001-E-EL2,36,chipE_ch1_DOFETILIDE_3nM,INTVL,Heart Rate,24.4570,beats/min,24.4570,24.457,beats/min,,DERIVED,,ALGORITHM,4,2026-03-22,1,DOFETILIDE .3 nM,TREATMENT
CIPA001,EG,CIPA001-E-EL2,37,chipE_ch1_DOFETILIDE_3nM,QCGRADE,QC Grade,B,,B,,,,DERIVED,,ALGORITHM,4,2026-03-22,1,DOFETILIDE .3 nM,TREATMENT
CIPA001,EG,CIPA001-E-EL2,38,chipE_ch1_DOFETILIDE_3nM,RSKSCR,Arrhythmia Risk Score,12,SCORE,12,12.0,SCORE,,DERIVED,,ALGORITHM,4,2026-03-22,1,DOFETILIDE .3 nM,TREATMENT
CIPA001,EG,CIPA001-E-EL2,39,chipE_ch1_DOFETILIDE_3nM,MORPHIN,Morphology Instability,0.1090,SCORE,0.1090,0.109,SCORE,,DERIVED,,ALGORITHM,4,2026-03-22,1,DOFETILIDE .3 nM,TREATMENT
CIPA001,EG,CIPA001-E-EL2,40,chipE_ch1_DOFETILIDE_3nM,EADPCT,EAD Incidence,2.7397,%,2.7397,2.7397,%,,DERIVED,,ALGORITHM,4,2026-03-22,1,DOFETILIDE .3 nM,TREATMENT
CIPA001,EG,CIPA001-E-EL1,11,chipE_ch1_DOFETILIDE_6nM,FPD,FPD,249.2881,ms,249.2881,249.2881,ms,,DERIVED,,ALGORITHM,2,2026-03-22,1,DOFETILIDE .6 nM,TREATMENT
CIPA001,EG,CIPA001-E-EL1,12,chipE_ch1_DOFETILIDE_6nM,FPDCF,FPDcF,172.9833,ms,172.9833,172.9833,ms,,DERIVED,,ALGORITHM,2,2026-03-22,1,DOFETILIDE .6 nM,TREATMENT
CIPA001,EG,CIPA001-E-EL1,13,chipE_ch1_DOFETILIDE_6nM,BP,Beat Period,3050.1207,ms,3050.1207,3050.1207,ms,,DERIVED,,ALGORITHM,2,2026-03-22,1,DOFETILIDE .6 nM,TREATMENT
CIPA001,EG,CIPA001-E-EL1,14,chipE_ch1_DOFETILIDE_6nM,SPIKEAM,Spike Amplitude,2517.4981,uV,2517.4981,2517.4981,uV,,DERIVED,,ALGORITHM,2,2026-03-22,1,DOFETILIDE .6 nM,TREATMENT
CIPA001,EG,CIPA001-E-EL1,15,chipE_ch1_DOFETILIDE_6nM,FPDCONF,FPD Confidence,0.7161,SCORE,0.7161,0.7161,SCORE,,DERIVED,,ALGORITHM,2,2026-03-22,1,DOFETILIDE .6 nM,TREATMENT
CIPA001,EG,CIPA001-E-EL1,16,chipE_ch1_DOFETILIDE_6nM,INTVL,Heart Rate,19.6714,beats/min,19.6714,19.6714,beats/min,,DERIVED,,ALGORITHM,2,2026-03-22,1,DOFETILIDE .6 nM,TREATMENT
CIPA001,EG,CIPA001-E-EL1,17,chipE_ch1_DOFETILIDE_6nM,QCGRADE,QC Grade,B,,B,,,,DERIVED,,ALGORITHM,2,2026-03-22,1,DOFETILIDE .6 nM,TREATMENT
CIPA001,EG,CIPA001-E-EL1,18,chipE_ch1_DOFETILIDE_6nM,RSKSCR,Arrhythmia Risk Score,24,SCORE,24,24.0,SCORE,,DERIVED,,ALGORITHM,2,2026-03-22,1,DOFETILIDE .6 nM,TREATMENT
CIPA001,EG,CIPA001-E-EL1,19,chipE_ch1_DOFETILIDE_6nM,MORPHIN,Morphology Instability,0.1046,SCORE,0.1046,0.1046,SCORE,,DERIVED,,ALGORITHM,2,2026-03-22,1,DOFETILIDE .6 nM,TREATMENT
CIPA001,EG,CIPA001-E-EL1,20,chipE_ch1_DOFETILIDE_6nM,EADPCT,EAD Incidence,0.0000,%,0.0000,0.0,%,,DERIVED,,ALGORITHM,2,2026-03-22,1,DOFETILIDE .6 nM,TREATMENT
CIPA001,EG,CIPA001-E-EL1,21,chipE_ch1_baseline,FPD,FPD,525.3622,ms,525.3622,525.3622,ms,,DERIVED,Y,ALGORITHM,3,2026-03-22,1,BASELINE,BASELINE
CIPA001,EG,CIPA001-E-EL1,22,chipE_ch1_baseline,FPDCF,FPDcF,459.4397,ms,459.4397,459.4397,ms,,DERIVED,Y,ALGORITHM,3,2026-03-22,1,BASELINE,BASELINE
CIPA001,EG,CIPA001-E-EL1,23,chipE_ch1_baseline,BP,Beat Period,1841.9845,ms,1841.9845,1841.9845,ms,,DERIVED,Y,ALGORITHM,3,2026-03-22,1,BASELINE,BASELINE
CIPA001,EG,CIPA001-E-EL1,24,chipE_ch1_baseline,SPIKEAM,Spike Amplitude,1810.4590,uV,1810.4590,1810.459,uV,,DERIVED,Y,ALGORITHM,3,2026-03-22,1,BASELINE,BASELINE
CIPA001,EG,CIPA001-E-EL1,25,chipE_ch1_baseline,FPDCONF,FPD Confidence,0.8391,SCORE,0.8391,0.8391,SCORE,,DERIVED,Y,ALGORITHM,3,2026-03-22,1,BASELINE,BASELINE
CIPA001,EG,CIPA001-E-EL1,26,chipE_ch1_baseline,INTVL,Heart Rate,32.5736,beats/min,32.5736,32.5736,beats/min,,DERIVED,Y,ALGORITHM,3,2026-03-22,1,BASELINE,BASELINE
CIPA001,EG,CIPA001-E-EL1,27,chipE_ch1_baseline,QCGRADE,QC Grade,C,,C,,,,DERIVED,Y,ALGORITHM,3,2026-03-22,1,BASELINE,BASELINE
CIPA001,EG,CIPA001-E-EL1,28,chipE_ch1_baseline,RSKSCR,Arrhythmia Risk Score,0,SCORE,0,0.0,SCORE,,DERIVED,Y,ALGORITHM,3,2026-03-22,1,BASELINE,BASELINE
CIPA001,EG,CIPA001-E-EL1,29,chipE_ch1_baseline,MORPHIN,Morphology Instability,0.1485,SCORE,0.1485,0.1485,SCORE,,DERIVED,Y,ALGORITHM,3,2026-03-22,1,BASELINE,BASELINE
CIPA001,EG,CIPA001-E-EL1,30,chipE_ch1_baseline,EADPCT,EAD Incidence,0.0000,%,0.0000,0.0,%,,DERIVED,Y,ALGORITHM,3,2026-03-22,1,BASELINE,BASELINE
CIPA001,EG,CIPA001-E-EL1,31,chipE_ch2_NIFEDIPINE_1,FPD,FPD,728.0068,ms,728.0068,728.0068,ms,,DERIVED,,ALGORITHM,4,2026-03-22,1,NIFEDIPINE None,TREATMENT
CIPA001,EG,CIPA001-E-EL1,32,chipE_ch2_NIFEDIPINE_1,FPDCF,FPDcF,544.4358,ms,544.4358,544.4358,ms,,DERIVED,,ALGORITHM,4,2026-03-22,1,NIFEDIPINE None,TREATMENT
CIPA001,EG,CIPA001-E-EL1,33,chipE_ch2_NIFEDIPINE_1,BP,Beat Period,2428.8767,ms,2428.8767,2428.8767,ms,,DERIVED,,ALGORITHM,4,2026-03-22,1,NIFEDIPINE None,TREATMENT
CIPA001,EG,CIPA001-E-EL1,34,chipE_ch2_NIFEDIPINE_1,SPIKEAM,Spike Amplitude,684.2220,uV,684.2220,684.222,uV,,DERIVED,,ALGORITHM,4,2026-03-22,1,NIFEDIPINE None,TREATMENT
CIPA001,EG,CIPA001-E-EL1,35,chipE_ch2_NIFEDIPINE_1,FPDCONF,FPD Confidence,0.8940,SCORE,0.8940,0.894,SCORE,,DERIVED,,ALGORITHM,4,2026-03-22,1,NIFEDIPINE None,TREATMENT
CIPA001,EG,CIPA001-E-EL1,36,chipE_ch2_NIFEDIPINE_1,INTVL,Heart Rate,24.7028,beats/min,24.7028,24.7028,beats/min,,DERIVED,,ALGORITHM,4,2026-03-22,1,NIFEDIPINE None,TREATMENT
CIPA001,EG,CIPA001-E-EL1,37,chipE_ch2_NIFEDIPINE_1,QCGRADE,QC Grade,A,,A,,,,DERIVED,,ALGORITHM,4,2026-03-22,1,NIFEDIPINE None,TREATMENT
CIPA001,EG,CIPA001-E-EL1,38,chipE_ch2_NIFEDIPINE_1,RSKSCR,Arrhythmia Risk Score,27,SCORE,27,27.0,SCORE,,DERIVED,,ALGORITHM,4,2026-03-22,1,NIFEDIPINE None,TREATMENT
CIPA001,EG,CIPA001-E-EL1,39,chipE_ch2_NIFEDIPINE_1,MORPHIN,Morphology Instability,0.1304,SCORE,0.1304,0.1304,SCORE,,DERIVED,,ALGORITHM,4,2026-03-22,1,NIFEDIPINE None,TREATMENT
CIPA001,EG,CIPA001-E-EL1,40,chipE_ch2_NIFEDIPINE_1,EADPCT,EAD Incidence,0.0000,%,0.0000,0.0,%,,DERIVED,,ALGORITHM,4,2026-03-22,1,NIFEDIPINE None,TREATMENT
CIPA001,EG,CIPA001-E-EL2,41,chipE_ch2_NIFEDIPINE_10,FPD,FPD,836.0965,ms,836.0965,836.0965,ms,,DERIVED,,ALGORITHM,5,2026-03-22,1,NIFEDIPINE None,TREATMENT
CIPA001,EG,CIPA001-E-EL2,42,chipE_ch2_NIFEDIPINE_10,FPDCF,FPDcF,720.2512,ms,720.2512,720.2512,ms,,DERIVED,,ALGORITHM,5,2026-03-22,1,NIFEDIPINE None,TREATMENT
CIPA001,EG,CIPA001-E-EL2,43,chipE_ch2_NIFEDIPINE_10,BP,Beat Period,1565.0000,ms,1565.0000,1565.0,ms,,DERIVED,,ALGORITHM,5,2026-03-22,1,NIFEDIPINE None,TREATMENT
CIPA001,EG,CIPA001-E-EL2,44,chipE_ch2_NIFEDIPINE_10,SPIKEAM,Spike Amplitude,1780.8245,uV,1780.8245,1780.8245,uV,,DERIVED,,ALGORITHM,5,2026-03-22,1,NIFEDIPINE None,TREATMENT
CIPA001,EG,CIPA001-E-EL2,45,chipE_ch2_NIFEDIPINE_10,FPDCONF,FPD Confidence,0.9023,SCORE,0.9023,0.9023,SCORE,,DERIVED,,ALGORITHM,5,2026-03-22,1,NIFEDIPINE None,TREATMENT
CIPA001,EG,CIPA001-E-EL2,46,chipE_ch2_NIFEDIPINE_10,INTVL,Heart Rate,38.3387,beats/min,38.3387,38.3387,beats/min,,DERIVED,,ALGORITHM,5,2026-03-22,1,NIFEDIPINE None,TREATMENT
CIPA001,EG,CIPA001-E-EL2,47,chipE_ch2_NIFEDIPINE_10,QCGRADE,QC Grade,A,,A,,,,DERIVED,,ALGORITHM,5,2026-03-22,1,NIFEDIPINE None,TREATMENT
CIPA001,EG,CIPA001-E-EL2,48,chipE_ch2_NIFEDIPINE_10,RSKSCR,Arrhythmia Risk Score,6,SCORE,6,6.0,SCORE,,DERIVED,,ALGORITHM,5,2026-03-22,1,NIFEDIPINE None,TREATMENT
CIPA001,EG,CIPA001-E-EL2,49,chipE_ch2_NIFEDIPINE_10,MORPHIN,Morphology Instability,0.1203,SCORE,0.1203,0.1203,SCORE,,DERIVED,,ALGORITHM,5,2026-03-22,1,NIFEDIPINE None,TREATMENT
CIPA001,EG,CIPA001-E-EL2,50,chipE_ch2_NIFEDIPINE_10,EADPCT,EAD Incidence,0.8772,%,0.8772,0.8772,%,,DERIVED,,ALGORITHM,5,2026-03-22,1,NIFEDIPINE None,TREATMENT
CIPA001,EG,CIPA001-E-EL1,41,chipE_ch2_NIFEDIPINE_100nM,FPD,FPD,809.8636,ms,809.8636,809.8636,ms,,DERIVED,,ALGORITHM,5,2026-03-22,1,NIFEDIPINE .100 nM,TREATMENT
CIPA001,EG,CIPA001-E-EL1,42,chipE_ch2_NIFEDIPINE_100nM,FPDCF,FPDcF,669.6917,ms,669.6917,669.6917,ms,,DERIVED,,ALGORITHM,5,2026-03-22,1,NIFEDIPINE .100 nM,TREATMENT
CIPA001,EG,CIPA001-E-EL1,43,chipE_ch2_NIFEDIPINE_100nM,BP,Beat Period,1797.3182,ms,1797.3182,1797.3182,ms,,DERIVED,,ALGORITHM,5,2026-03-22,1,NIFEDIPINE .100 nM,TREATMENT
CIPA001,EG,CIPA001-E-EL1,44,chipE_ch2_NIFEDIPINE_100nM,SPIKEAM,Spike Amplitude,538.9459,uV,538.9459,538.9459,uV,,DERIVED,,ALGORITHM,5,2026-03-22,1,NIFEDIPINE .100 nM,TREATMENT
CIPA001,EG,CIPA001-E-EL1,45,chipE_ch2_NIFEDIPINE_100nM,FPDCONF,FPD Confidence,0.9171,SCORE,0.9171,0.9171,SCORE,,DERIVED,,ALGORITHM,5,2026-03-22,1,NIFEDIPINE .100 nM,TREATMENT
CIPA001,EG,CIPA001-E-EL1,46,chipE_ch2_NIFEDIPINE_100nM,INTVL,Heart Rate,33.3831,beats/min,33.3831,33.3831,beats/min,,DERIVED,,ALGORITHM,5,2026-03-22,1,NIFEDIPINE .100 nM,TREATMENT
CIPA001,EG,CIPA001-E-EL1,47,chipE_ch2_NIFEDIPINE_100nM,QCGRADE,QC Grade,A,,A,,,,DERIVED,,ALGORITHM,5,2026-03-22,1,NIFEDIPINE .100 nM,TREATMENT
CIPA001,EG,CIPA001-E-EL1,48,chipE_ch2_NIFEDIPINE_100nM,RSKSCR,Arrhythmia Risk Score,20,SCORE,20,20.0,SCORE,,DERIVED,,ALGORITHM,5,2026-03-22,1,NIFEDIPINE .100 nM,TREATMENT
CIPA001,EG,CIPA001-E-EL1,49,chipE_ch2_NIFEDIPINE_100nM,MORPHIN,Morphology Instability,0.1553,SCORE,0.1553,0.1553,SCORE,,DERIVED,,ALGORITHM,5,2026-03-22,1,NIFEDIPINE .100 nM,TREATMENT
CIPA001,EG,CIPA001-E-EL1,50,chipE_ch2_NIFEDIPINE_100nM,EADPCT,EAD Incidence,0.0000,%,0.0000,0.0,%,,DERIVED,,ALGORITHM,5,2026-03-22,1,NIFEDIPINE .100 nM,TREATMENT
CIPA001,EG,CIPA001-E-EL2,51,chipE_ch2_NIFEDIPINE_25nM,FPD,FPD,806.2786,ms,806.2786,806.2786,ms,,DERIVED,,ALGORITHM,6,2026-03-22,1,NIFEDIPINE .25 nM,TREATMENT
CIPA001,EG,CIPA001-E-EL2,52,chipE_ch2_NIFEDIPINE_25nM,FPDCF,FPDcF,728.3928,ms,728.3928,728.3928,ms,,DERIVED,,ALGORITHM,6,2026-03-22,1,NIFEDIPINE .25 nM,TREATMENT
CIPA001,EG,CIPA001-E-EL2,53,chipE_ch2_NIFEDIPINE_25nM,BP,Beat Period,1366.8000,ms,1366.8000,1366.8,ms,,DERIVED,,ALGORITHM,6,2026-03-22,1,NIFEDIPINE .25 nM,TREATMENT
CIPA001,EG,CIPA001-E-EL2,54,chipE_ch2_NIFEDIPINE_25nM,SPIKEAM,Spike Amplitude,225.8262,uV,225.8262,225.8262,uV,,DERIVED,,ALGORITHM,6,2026-03-22,1,NIFEDIPINE .25 nM,TREATMENT
CIPA001,EG,CIPA001-E-EL2,55,chipE_ch2_NIFEDIPINE_25nM,FPDCONF,FPD Confidence,0.8508,SCORE,0.8508,0.8508,SCORE,,DERIVED,,ALGORITHM,6,2026-03-22,1,NIFEDIPINE .25 nM,TREATMENT
CIPA001,EG,CIPA001-E-EL2,56,chipE_ch2_NIFEDIPINE_25nM,INTVL,Heart Rate,43.8982,beats/min,43.8982,43.8982,beats/min,,DERIVED,,ALGORITHM,6,2026-03-22,1,NIFEDIPINE .25 nM,TREATMENT
CIPA001,EG,CIPA001-E-EL2,57,chipE_ch2_NIFEDIPINE_25nM,QCGRADE,QC Grade,A,,A,,,,DERIVED,,ALGORITHM,6,2026-03-22,1,NIFEDIPINE .25 nM,TREATMENT
CIPA001,EG,CIPA001-E-EL2,58,chipE_ch2_NIFEDIPINE_25nM,RSKSCR,Arrhythmia Risk Score,22,SCORE,22,22.0,SCORE,,DERIVED,,ALGORITHM,6,2026-03-22,1,NIFEDIPINE .25 nM,TREATMENT
CIPA001,EG,CIPA001-E-EL2,59,chipE_ch2_NIFEDIPINE_25nM,MORPHIN,Morphology Instability,0.1913,SCORE,0.1913,0.1913,SCORE,,DERIVED,,ALGORITHM,6,2026-03-22,1,NIFEDIPINE .25 nM,TREATMENT
CIPA001,EG,CIPA001-E-EL2,60,chipE_ch2_NIFEDIPINE_25nM,EADPCT,EAD Incidence,0.0000,%,0.0000,0.0,%,,DERIVED,,ALGORITHM,6,2026-03-22,1,NIFEDIPINE .25 nM,TREATMENT
CIPA001,EG,CIPA001-E-EL1,51,chipE_ch2_NIFEDIPINE_50nM,FPD,FPD,904.7406,ms,904.7406,904.7406,ms,,DERIVED,,ALGORITHM,6,2026-03-22,1,NIFEDIPINE .50 nM,TREATMENT
CIPA001,EG,CIPA001-E-EL1,52,chipE_ch2_NIFEDIPINE_50nM,FPDCF,FPDcF,763.2355,ms,763.2355,763.2355,ms,,DERIVED,,ALGORITHM,6,2026-03-22,1,NIFEDIPINE .50 nM,TREATMENT
CIPA001,EG,CIPA001-E-EL1,53,chipE_ch2_NIFEDIPINE_50nM,BP,Beat Period,1693.0619,ms,1693.0619,1693.0619,ms,,DERIVED,,ALGORITHM,6,2026-03-22,1,NIFEDIPINE .50 nM,TREATMENT
CIPA001,EG,CIPA001-E-EL1,54,chipE_ch2_NIFEDIPINE_50nM,SPIKEAM,Spike Amplitude,605.7950,uV,605.7950,605.795,uV,,DERIVED,,ALGORITHM,6,2026-03-22,1,NIFEDIPINE .50 nM,TREATMENT
CIPA001,EG,CIPA001-E-EL1,55,chipE_ch2_NIFEDIPINE_50nM,FPDCONF,FPD Confidence,0.7967,SCORE,0.7967,0.7967,SCORE,,DERIVED,,ALGORITHM,6,2026-03-22,1,NIFEDIPINE .50 nM,TREATMENT
CIPA001,EG,CIPA001-E-EL1,56,chipE_ch2_NIFEDIPINE_50nM,INTVL,Heart Rate,35.4388,beats/min,35.4388,35.4388,beats/min,,DERIVED,,ALGORITHM,6,2026-03-22,1,NIFEDIPINE .50 nM,TREATMENT
CIPA001,EG,CIPA001-E-EL1,57,chipE_ch2_NIFEDIPINE_50nM,QCGRADE,QC Grade,A,,A,,,,DERIVED,,ALGORITHM,6,2026-03-22,1,NIFEDIPINE .50 nM,TREATMENT
CIPA001,EG,CIPA001-E-EL1,58,chipE_ch2_NIFEDIPINE_50nM,RSKSCR,Arrhythmia Risk Score,24,SCORE,24,24.0,SCORE,,DERIVED,,ALGORITHM,6,2026-03-22,1,NIFEDIPINE .50 nM,TREATMENT
CIPA001,EG,CIPA001-E-EL1,59,chipE_ch2_NIFEDIPINE_50nM,MORPHIN,Morphology Instability,0.1782,SCORE,0.1782,0.1782,SCORE,,DERIVED,,ALGORITHM,6,2026-03-22,1,NIFEDIPINE .50 nM,TREATMENT
CIPA001,EG,CIPA001-E-EL1,60,chipE_ch2_NIFEDIPINE_50nM,EADPCT,EAD Incidence,0.0000,%,0.0000,0.0,%,,DERIVED,,ALGORITHM,6,2026-03-22,1,NIFEDIPINE .50 nM,TREATMENT
CIPA001,EG,CIPA001-E-EL2,61,chipE_ch2_baseline,FPD,FPD,718.0959,ms,718.0959,718.0959,ms,,DERIVED,Y,ALGORITHM,7,2026-03-22,1,BASELINE,BASELINE
CIPA001,EG,CIPA001-E-EL2,62,chipE_ch2_baseline,FPDCF,FPDcF,542.3070,ms,542.3070,542.307,ms,,DERIVED,Y,ALGORITHM,7,2026-03-22,1,BASELINE,BASELINE
CIPA001,EG,CIPA001-E-EL2,63,chipE_ch2_baseline,BP,Beat Period,2450.7603,ms,2450.7603,2450.7603,ms,,DERIVED,Y,ALGORITHM,7,2026-03-22,1,BASELINE,BASELINE
CIPA001,EG,CIPA001-E-EL2,64,chipE_ch2_baseline,SPIKEAM,Spike Amplitude,1273.3397,uV,1273.3397,1273.3397,uV,,DERIVED,Y,ALGORITHM,7,2026-03-22,1,BASELINE,BASELINE
CIPA001,EG,CIPA001-E-EL2,65,chipE_ch2_baseline,FPDCONF,FPD Confidence,0.8827,SCORE,0.8827,0.8827,SCORE,,DERIVED,Y,ALGORITHM,7,2026-03-22,1,BASELINE,BASELINE
CIPA001,EG,CIPA001-E-EL2,66,chipE_ch2_baseline,INTVL,Heart Rate,24.4822,beats/min,24.4822,24.4822,beats/min,,DERIVED,Y,ALGORITHM,7,2026-03-22,1,BASELINE,BASELINE
CIPA001,EG,CIPA001-E-EL2,67,chipE_ch2_baseline,QCGRADE,QC Grade,B,,B,,,,DERIVED,Y,ALGORITHM,7,2026-03-22,1,BASELINE,BASELINE
CIPA001,EG,CIPA001-E-EL2,68,chipE_ch2_baseline,RSKSCR,Arrhythmia Risk Score,0,SCORE,0,0.0,SCORE,,DERIVED,Y,ALGORITHM,7,2026-03-22,1,BASELINE,BASELINE
CIPA001,EG,CIPA001-E-EL2,69,chipE_ch2_baseline,MORPHIN,Morphology Instability,0.2303,SCORE,0.2303,0.2303,SCORE,,DERIVED,Y,ALGORITHM,7,2026-03-22,1,BASELINE,BASELINE
CIPA001,EG,CIPA001-E-EL2,70,chipE_ch2_baseline,EADPCT,EAD Incidence,1.3699,%,1.3699,1.3699,%,,DERIVED,Y,ALGORITHM,7,2026-03-22,1,BASELINE,BASELINE
CIPA001,EG,CIPA001-E-EL1,61,chipE_ch3_MEXILITINE_0_1uM,FPD,FPD,478.4495,ms,478.4495,478.4495,ms,,DERIVED,,ALGORITHM,7,2026-03-22,1,MEXILETINE .0.1 uM,TREATMENT
CIPA001,EG,CIPA001-E-EL1,62,chipE_ch3_MEXILITINE_0_1uM,FPDCF,FPDcF,394.4002,ms,394.4002,394.4002,ms,,DERIVED,,ALGORITHM,7,2026-03-22,1,MEXILETINE .0.1 uM,TREATMENT
CIPA001,EG,CIPA001-E-EL1,63,chipE_ch3_MEXILITINE_0_1uM,BP,Beat Period,1791.7677,ms,1791.7677,1791.7677,ms,,DERIVED,,ALGORITHM,7,2026-03-22,1,MEXILETINE .0.1 uM,TREATMENT
CIPA001,EG,CIPA001-E-EL1,64,chipE_ch3_MEXILITINE_0_1uM,SPIKEAM,Spike Amplitude,913.6709,uV,913.6709,913.6709,uV,,DERIVED,,ALGORITHM,7,2026-03-22,1,MEXILETINE .0.1 uM,TREATMENT
CIPA001,EG,CIPA001-E-EL1,65,chipE_ch3_MEXILITINE_0_1uM,FPDCONF,FPD Confidence,0.9090,SCORE,0.9090,0.909,SCORE,,DERIVED,,ALGORITHM,7,2026-03-22,1,MEXILETINE .0.1 uM,TREATMENT
CIPA001,EG,CIPA001-E-EL1,66,chipE_ch3_MEXILITINE_0_1uM,INTVL,Heart Rate,33.4865,beats/min,33.4865,33.4865,beats/min,,DERIVED,,ALGORITHM,7,2026-03-22,1,MEXILETINE .0.1 uM,TREATMENT
CIPA001,EG,CIPA001-E-EL1,67,chipE_ch3_MEXILITINE_0_1uM,QCGRADE,QC Grade,A,,A,,,,DERIVED,,ALGORITHM,7,2026-03-22,1,MEXILETINE .0.1 uM,TREATMENT
CIPA001,EG,CIPA001-E-EL1,68,chipE_ch3_MEXILITINE_0_1uM,RSKSCR,Arrhythmia Risk Score,15,SCORE,15,15.0,SCORE,,DERIVED,,ALGORITHM,7,2026-03-22,1,MEXILETINE .0.1 uM,TREATMENT
CIPA001,EG,CIPA001-E-EL1,69,chipE_ch3_MEXILITINE_0_1uM,MORPHIN,Morphology Instability,0.1439,SCORE,0.1439,0.1439,SCORE,,DERIVED,,ALGORITHM,7,2026-03-22,1,MEXILETINE .0.1 uM,TREATMENT
CIPA001,EG,CIPA001-E-EL1,70,chipE_ch3_MEXILITINE_0_1uM,EADPCT,EAD Incidence,0.0000,%,0.0000,0.0,%,,DERIVED,,ALGORITHM,7,2026-03-22,1,MEXILETINE .0.1 uM,TREATMENT
CIPA001,EG,CIPA001-E-EL1,71,chipE_ch3_MEXILITINE_1,FPD,FPD,539.8915,ms,539.8915,539.8915,ms,,DERIVED,,ALGORITHM,8,2026-03-22,1,MEXILETINE None,TREATMENT
CIPA001,EG,CIPA001-E-EL1,72,chipE_ch3_MEXILITINE_1,FPDCF,FPDcF,454.3504,ms,454.3504,454.3504,ms,,DERIVED,,ALGORITHM,8,2026-03-22,1,MEXILETINE None,TREATMENT
CIPA001,EG,CIPA001-E-EL1,73,chipE_ch3_MEXILITINE_1,BP,Beat Period,1689.1557,ms,1689.1557,1689.1557,ms,,DERIVED,,ALGORITHM,8,2026-03-22,1,MEXILETINE None,TREATMENT
CIPA001,EG,CIPA001-E-EL1,74,chipE_ch3_MEXILITINE_1,SPIKEAM,Spike Amplitude,800.8215,uV,800.8215,800.8215,uV,,DERIVED,,ALGORITHM,8,2026-03-22,1,MEXILETINE None,TREATMENT
CIPA001,EG,CIPA001-E-EL1,75,chipE_ch3_MEXILITINE_1,FPDCONF,FPD Confidence,0.9216,SCORE,0.9216,0.9216,SCORE,,DERIVED,,ALGORITHM,8,2026-03-22,1,MEXILETINE None,TREATMENT
CIPA001,EG,CIPA001-E-EL1,76,chipE_ch3_MEXILITINE_1,INTVL,Heart Rate,35.5207,beats/min,35.5207,35.5207,beats/min,,DERIVED,,ALGORITHM,8,2026-03-22,1,MEXILETINE None,TREATMENT
CIPA001,EG,CIPA001-E-EL1,77,chipE_ch3_MEXILITINE_1,QCGRADE,QC Grade,A,,A,,,,DERIVED,,ALGORITHM,8,2026-03-22,1,MEXILETINE None,TREATMENT
CIPA001,EG,CIPA001-E-EL1,78,chipE_ch3_MEXILITINE_1,RSKSCR,Arrhythmia Risk Score,15,SCORE,15,15.0,SCORE,,DERIVED,,ALGORITHM,8,2026-03-22,1,MEXILETINE None,TREATMENT
CIPA001,EG,CIPA001-E-EL1,79,chipE_ch3_MEXILITINE_1,MORPHIN,Morphology Instability,0.1300,SCORE,0.1300,0.13,SCORE,,DERIVED,,ALGORITHM,8,2026-03-22,1,MEXILETINE None,TREATMENT
CIPA001,EG,CIPA001-E-EL1,80,chipE_ch3_MEXILITINE_1,EADPCT,EAD Incidence,0.0000,%,0.0000,0.0,%,,DERIVED,,ALGORITHM,8,2026-03-22,1,MEXILETINE None,TREATMENT
CIPA001,EG,CIPA001-E-EL2,71,chipE_ch3_MEXILITINE_100uM_2,FPD,FPD,822.3529,ms,822.3529,822.3529,ms,,DERIVED,,ALGORITHM,8,2026-03-22,1,MEXILETINE .100 uM,TREATMENT
CIPA001,EG,CIPA001-E-EL2,72,chipE_ch3_MEXILITINE_100uM_2,FPDCF,FPDcF,642.4452,ms,642.4452,642.4452,ms,,DERIVED,,ALGORITHM,8,2026-03-22,1,MEXILETINE .100 uM,TREATMENT
CIPA001,EG,CIPA001-E-EL2,73,chipE_ch3_MEXILITINE_100uM_2,BP,Beat Period,2120.8571,ms,2120.8571,2120.8571,ms,,DERIVED,,ALGORITHM,8,2026-03-22,1,MEXILETINE .100 uM,TREATMENT
CIPA001,EG,CIPA001-E-EL2,74,chipE_ch3_MEXILITINE_100uM_2,SPIKEAM,Spike Amplitude,408.2869,uV,408.2869,408.2869,uV,,DERIVED,,ALGORITHM,8,2026-03-22,1,MEXILETINE .100 uM,TREATMENT
CIPA001,EG,CIPA001-E-EL2,75,chipE_ch3_MEXILITINE_100uM_2,FPDCONF,FPD Confidence,0.9097,SCORE,0.9097,0.9097,SCORE,,DERIVED,,ALGORITHM,8,2026-03-22,1,MEXILETINE .100 uM,TREATMENT
CIPA001,EG,CIPA001-E-EL2,76,chipE_ch3_MEXILITINE_100uM_2,INTVL,Heart Rate,28.2904,beats/min,28.2904,28.2904,beats/min,,DERIVED,,ALGORITHM,8,2026-03-22,1,MEXILETINE .100 uM,TREATMENT
CIPA001,EG,CIPA001-E-EL2,77,chipE_ch3_MEXILITINE_100uM_2,QCGRADE,QC Grade,A,,A,,,,DERIVED,,ALGORITHM,8,2026-03-22,1,MEXILETINE .100 uM,TREATMENT
CIPA001,EG,CIPA001-E-EL2,78,chipE_ch3_MEXILITINE_100uM_2,RSKSCR,Arrhythmia Risk Score,17,SCORE,17,17.0,SCORE,,DERIVED,,ALGORITHM,8,2026-03-22,1,MEXILETINE .100 uM,TREATMENT
CIPA001,EG,CIPA001-E-EL2,79,chipE_ch3_MEXILITINE_100uM_2,MORPHIN,Morphology Instability,0.1297,SCORE,0.1297,0.1297,SCORE,,DERIVED,,ALGORITHM,8,2026-03-22,1,MEXILETINE .100 uM,TREATMENT
CIPA001,EG,CIPA001-E-EL2,80,chipE_ch3_MEXILITINE_100uM_2,EADPCT,EAD Incidence,1.1765,%,1.1765,1.1765,%,,DERIVED,,ALGORITHM,8,2026-03-22,1,MEXILETINE .100 uM,TREATMENT
CIPA001,EG,CIPA001-E-EL1,81,chipE_ch3_MEXILITINE_10uM_2,FPD,FPD,562.6434,ms,562.6434,562.6434,ms,,DERIVED,,ALGORITHM,9,2026-03-22,1,MEXILETINE .10 uM,TREATMENT
CIPA001,EG,CIPA001-E-EL1,82,chipE_ch3_MEXILITINE_10uM_2,FPDCF,FPDcF,505.1327,ms,505.1327,505.1327,ms,,DERIVED,,ALGORITHM,9,2026-03-22,1,MEXILETINE .10 uM,TREATMENT
CIPA001,EG,CIPA001-E-EL1,83,chipE_ch3_MEXILITINE_10uM_2,BP,Beat Period,1389.7326,ms,1389.7326,1389.7326,ms,,DERIVED,,ALGORITHM,9,2026-03-22,1,MEXILETINE .10 uM,TREATMENT
CIPA001,EG,CIPA001-E-EL1,84,chipE_ch3_MEXILITINE_10uM_2,SPIKEAM,Spike Amplitude,566.2248,uV,566.2248,566.2248,uV,,DERIVED,,ALGORITHM,9,2026-03-22,1,MEXILETINE .10 uM,TREATMENT
CIPA001,EG,CIPA001-E-EL1,85,chipE_ch3_MEXILITINE_10uM_2,FPDCONF,FPD Confidence,0.8971,SCORE,0.8971,0.8971,SCORE,,DERIVED,,ALGORITHM,9,2026-03-22,1,MEXILETINE .10 uM,TREATMENT
CIPA001,EG,CIPA001-E-EL1,86,chipE_ch3_MEXILITINE_10uM_2,INTVL,Heart Rate,43.1738,beats/min,43.1738,43.1738,beats/min,,DERIVED,,ALGORITHM,9,2026-03-22,1,MEXILETINE .10 uM,TREATMENT
CIPA001,EG,CIPA001-E-EL1,87,chipE_ch3_MEXILITINE_10uM_2,QCGRADE,QC Grade,A,,A,,,,DERIVED,,ALGORITHM,9,2026-03-22,1,MEXILETINE .10 uM,TREATMENT
CIPA001,EG,CIPA001-E-EL1,88,chipE_ch3_MEXILITINE_10uM_2,RSKSCR,Arrhythmia Risk Score,23,SCORE,23,23.0,SCORE,,DERIVED,,ALGORITHM,9,2026-03-22,1,MEXILETINE .10 uM,TREATMENT
CIPA001,EG,CIPA001-E-EL1,89,chipE_ch3_MEXILITINE_10uM_2,MORPHIN,Morphology Instability,0.1763,SCORE,0.1763,0.1763,SCORE,,DERIVED,,ALGORITHM,9,2026-03-22,1,MEXILETINE .10 uM,TREATMENT
CIPA001,EG,CIPA001-E-EL1,90,chipE_ch3_MEXILITINE_10uM_2,EADPCT,EAD Incidence,0.0000,%,0.0000,0.0,%,,DERIVED,,ALGORITHM,9,2026-03-22,1,MEXILETINE .10 uM,TREATMENT
CIPA001,EG,CIPA001-E-EL1,91,chipE_ch3_MEXILITINE_2_5uM,FPD,FPD,531.8246,ms,531.8246,531.8246,ms,,DERIVED,,ALGORITHM,10,2026-03-22,1,MEXILETINE .2.5 uM,TREATMENT
CIPA001,EG,CIPA001-E-EL1,92,chipE_ch3_MEXILITINE_2_5uM,FPDCF,FPDcF,483.2474,ms,483.2474,483.2474,ms,,DERIVED,,ALGORITHM,10,2026-03-22,1,MEXILETINE .2.5 uM,TREATMENT
CIPA001,EG,CIPA001-E-EL1,93,chipE_ch3_MEXILITINE_2_5uM,BP,Beat Period,1339.0226,ms,1339.0226,1339.0226,ms,,DERIVED,,ALGORITHM,10,2026-03-22,1,MEXILETINE .2.5 uM,TREATMENT
CIPA001,EG,CIPA001-E-EL1,94,chipE_ch3_MEXILITINE_2_5uM,SPIKEAM,Spike Amplitude,863.6292,uV,863.6292,863.6292,uV,,DERIVED,,ALGORITHM,10,2026-03-22,1,MEXILETINE .2.5 uM,TREATMENT
CIPA001,EG,CIPA001-E-EL1,95,chipE_ch3_MEXILITINE_2_5uM,FPDCONF,FPD Confidence,0.9285,SCORE,0.9285,0.9285,SCORE,,DERIVED,,ALGORITHM,10,2026-03-22,1,MEXILETINE .2.5 uM,TREATMENT
CIPA001,EG,CIPA001-E-EL1,96,chipE_ch3_MEXILITINE_2_5uM,INTVL,Heart Rate,44.8088,beats/min,44.8088,44.8088,beats/min,,DERIVED,,ALGORITHM,10,2026-03-22,1,MEXILETINE .2.5 uM,TREATMENT
CIPA001,EG,CIPA001-E-EL1,97,chipE_ch3_MEXILITINE_2_5uM,QCGRADE,QC Grade,A,,A,,,,DERIVED,,ALGORITHM,10,2026-03-22,1,MEXILETINE .2.5 uM,TREATMENT
CIPA001,EG,CIPA001-E-EL1,98,chipE_ch3_MEXILITINE_2_5uM,RSKSCR,Arrhythmia Risk Score,25,SCORE,25,25.0,SCORE,,DERIVED,,ALGORITHM,10,2026-03-22,1,MEXILETINE .2.5 uM,TREATMENT
CIPA001,EG,CIPA001-E-EL1,99,chipE_ch3_MEXILITINE_2_5uM,MORPHIN,Morphology Instability,0.1326,SCORE,0.1326,0.1326,SCORE,,DERIVED,,ALGORITHM,10,2026-03-22,1,MEXILETINE .2.5 uM,TREATMENT
CIPA001,EG,CIPA001-E-EL1,100,chipE_ch3_MEXILITINE_2_5uM,EADPCT,EAD Incidence,0.0000,%,0.0000,0.0,%,,DERIVED,,ALGORITHM,10,2026-03-22,1,MEXILETINE .2.5 uM,TREATMENT
CIPA001,EG,CIPA001-E-EL1,101,chipE_ch3_MEXILITINE_50uM_2,FPD,FPD,532.8200,ms,532.8200,532.82,ms,,DERIVED,,ALGORITHM,11,2026-03-22,1,MEXILETINE .50 uM,TREATMENT
CIPA001,EG,CIPA001-E-EL1,102,chipE_ch3_MEXILITINE_50uM_2,FPDCF,FPDcF,473.6136,ms,473.6136,473.6136,ms,,DERIVED,,ALGORITHM,11,2026-03-22,1,MEXILETINE .50 uM,TREATMENT
CIPA001,EG,CIPA001-E-EL1,103,chipE_ch3_MEXILITINE_50uM_2,BP,Beat Period,1430.2984,ms,1430.2984,1430.2984,ms,,DERIVED,,ALGORITHM,11,2026-03-22,1,MEXILETINE .50 uM,TREATMENT
CIPA001,EG,CIPA001-E-EL1,104,chipE_ch3_MEXILITINE_50uM_2,SPIKEAM,Spike Amplitude,736.0294,uV,736.0294,736.0294,uV,,DERIVED,,ALGORITHM,11,2026-03-22,1,MEXILETINE .50 uM,TREATMENT
CIPA001,EG,CIPA001-E-EL1,105,chipE_ch3_MEXILITINE_50uM_2,FPDCONF,FPD Confidence,0.9018,SCORE,0.9018,0.9018,SCORE,,DERIVED,,ALGORITHM,11,2026-03-22,1,MEXILETINE .50 uM,TREATMENT
CIPA001,EG,CIPA001-E-EL1,106,chipE_ch3_MEXILITINE_50uM_2,INTVL,Heart Rate,41.9493,beats/min,41.9493,41.9493,beats/min,,DERIVED,,ALGORITHM,11,2026-03-22,1,MEXILETINE .50 uM,TREATMENT
CIPA001,EG,CIPA001-E-EL1,107,chipE_ch3_MEXILITINE_50uM_2,QCGRADE,QC Grade,A,,A,,,,DERIVED,,ALGORITHM,11,2026-03-22,1,MEXILETINE .50 uM,TREATMENT
CIPA001,EG,CIPA001-E-EL1,108,chipE_ch3_MEXILITINE_50uM_2,RSKSCR,Arrhythmia Risk Score,16,SCORE,16,16.0,SCORE,,DERIVED,,ALGORITHM,11,2026-03-22,1,MEXILETINE .50 uM,TREATMENT
CIPA001,EG,CIPA001-E-EL1,109,chipE_ch3_MEXILITINE_50uM_2,MORPHIN,Morphology Instability,0.1437,SCORE,0.1437,0.1437,SCORE,,DERIVED,,ALGORITHM,11,2026-03-22,1,MEXILETINE .50 uM,TREATMENT
CIPA001,EG,CIPA001-E-EL1,110,chipE_ch3_MEXILITINE_50uM_2,EADPCT,EAD Incidence,0.0000,%,0.0000,0.0,%,,DERIVED,,ALGORITHM,11,2026-03-22,1,MEXILETINE .50 uM,TREATMENT
CIPA001,EG,CIPA001-A-EL1,196,chipA_ch1_NIFEDIPINE1nM,FPD,FPD,512.1716,ms,512.1716,512.1716,ms,,DERIVED,,ALGORITHM,14,2026-03-22,1,NIFEDIPINE 1 nM,TREATMENT
CIPA001,EG,CIPA001-A-EL1,197,chipA_ch1_NIFEDIPINE1nM,FPDCF,FPDcF,467.2899,ms,467.2899,467.2899,ms,,DERIVED,,ALGORITHM,14,2026-03-22,1,NIFEDIPINE 1 nM,TREATMENT
CIPA001,EG,CIPA001-A-EL1,198,chipA_ch1_NIFEDIPINE1nM,BP,Beat Period,1330.3507,ms,1330.3507,1330.3507,ms,,DERIVED,,ALGORITHM,14,2026-03-22,1,NIFEDIPINE 1 nM,TREATMENT
CIPA001,EG,CIPA001-A-EL1,199,chipA_ch1_NIFEDIPINE1nM,SPIKEAM,Spike Amplitude,4098.8462,uV,4098.8462,4098.8462,uV,,DERIVED,,ALGORITHM,14,2026-03-22,1,NIFEDIPINE 1 nM,TREATMENT
CIPA001,EG,CIPA001-A-EL1,200,chipA_ch1_NIFEDIPINE1nM,FPDCONF,FPD Confidence,0.9037,SCORE,0.9037,0.9037,SCORE,,DERIVED,,ALGORITHM,14,2026-03-22,1,NIFEDIPINE 1 nM,TREATMENT
CIPA001,EG,CIPA001-A-EL1,201,chipA_ch1_NIFEDIPINE1nM,INTVL,Heart Rate,45.1009,beats/min,45.1009,45.1009,beats/min,,DERIVED,,ALGORITHM,14,2026-03-22,1,NIFEDIPINE 1 nM,TREATMENT
CIPA001,EG,CIPA001-A-EL1,202,chipA_ch1_NIFEDIPINE1nM,QCGRADE,QC Grade,A,,A,,,,DERIVED,,ALGORITHM,14,2026-03-22,1,NIFEDIPINE 1 nM,TREATMENT
CIPA001,EG,CIPA001-A-EL1,203,chipA_ch1_NIFEDIPINE1nM,FPDCFPC,FPDcF Pct Change,-20.0308,%,-20.0308,-20.0308,%,,DERIVED,,ALGORITHM,14,2026-03-22,1,NIFEDIPINE 1 nM,TREATMENT
CIPA001,EG,CIPA001-A-EL1,204,chipA_ch1_NIFEDIPINE1nM,BPPCT,Beat Period Pct Change,-53.7371,%,-53.7371,-53.7371,%,,DERIVED,,ALGORITHM,14,2026-03-22,1,NIFEDIPINE 1 nM,TREATMENT
CIPA001,EG,CIPA001-A-EL1,205,chipA_ch1_NIFEDIPINE1nM,AMPPCT,Amplitude Pct Change,40.8711,%,40.8711,40.8711,%,,DERIVED,,ALGORITHM,14,2026-03-22,1,NIFEDIPINE 1 nM,TREATMENT
CIPA001,EG,CIPA001-A-EL1,206,chipA_ch1_NIFEDIPINE1nM,TDPSCR,TdP Risk Score,-1,SCORE,-1,-1.0,SCORE,,DERIVED,,ALGORITHM,14,2026-03-22,1,NIFEDIPINE 1 nM,TREATMENT
CIPA001,EG,CIPA001-A-EL1,207,chipA_ch1_NIFEDIPINE1nM,SPECCHG,Spectral Change,0.5419,SCORE,0.5419,0.5419,SCORE,,DERIVED,,ALGORITHM,14,2026-03-22,1,NIFEDIPINE 1 nM,TREATMENT
CIPA001,EG,CIPA001-A-EL1,208,chipA_ch1_NIFEDIPINE1nM,RSKSCR,Arrhythmia Risk Score,17,SCORE,17,17.0,SCORE,,DERIVED,,ALGORITHM,14,2026-03-22,1,NIFEDIPINE 1 nM,TREATMENT
CIPA001,EG,CIPA001-A-EL1,209,chipA_ch1_NIFEDIPINE1nM,MORPHIN,Morphology Instability,0.1190,SCORE,0.1190,0.119,SCORE,,DERIVED,,ALGORITHM,14,2026-03-22,1,NIFEDIPINE 1 nM,TREATMENT
CIPA001,EG,CIPA001-A-EL1,210,chipA_ch1_NIFEDIPINE1nM,EADPCT,EAD Incidence,0.0000,%,0.0000,0.0,%,,DERIVED,,ALGORITHM,14,2026-03-22,1,NIFEDIPINE 1 nM,TREATMENT
CIPA001,EG,CIPA001-A-EL2,86,chipA_ch1_NIFEDIPINE_100nM,FPD,FPD,318.3865,ms,318.3865,318.3865,ms,,DERIVED,,ALGORITHM,7,2026-03-22,1,NIFEDIPINE .100 nM,TREATMENT
CIPA001,EG,CIPA001-A-EL2,87,chipA_ch1_NIFEDIPINE_100nM,FPDCF,FPDcF,364.1503,ms,364.1503,364.1503,ms,,DERIVED,,ALGORITHM,7,2026-03-22,1,NIFEDIPINE .100 nM,TREATMENT
CIPA001,EG,CIPA001-A-EL2,88,chipA_ch1_NIFEDIPINE_100nM,BP,Beat Period,777.6407,ms,777.6407,777.6407,ms,,DERIVED,,ALGORITHM,7,2026-03-22,1,NIFEDIPINE .100 nM,TREATMENT
CIPA001,EG,CIPA001-A-EL2,89,chipA_ch1_NIFEDIPINE_100nM,SPIKEAM,Spike Amplitude,109.2676,uV,109.2676,109.2676,uV,,DERIVED,,ALGORITHM,7,2026-03-22,1,NIFEDIPINE .100 nM,TREATMENT
CIPA001,EG,CIPA001-A-EL2,90,chipA_ch1_NIFEDIPINE_100nM,FPDCONF,FPD Confidence,0.6523,SCORE,0.6523,0.6523,SCORE,,DERIVED,,ALGORITHM,7,2026-03-22,1,NIFEDIPINE .100 nM,TREATMENT
CIPA001,EG,CIPA001-A-EL2,91,chipA_ch1_NIFEDIPINE_100nM,INTVL,Heart Rate,77.1565,beats/min,77.1565,77.1565,beats/min,,DERIVED,,ALGORITHM,7,2026-03-22,1,NIFEDIPINE .100 nM,TREATMENT
CIPA001,EG,CIPA001-A-EL2,92,chipA_ch1_NIFEDIPINE_100nM,QCGRADE,QC Grade,C,,C,,,,DERIVED,,ALGORITHM,7,2026-03-22,1,NIFEDIPINE .100 nM,TREATMENT
CIPA001,EG,CIPA001-A-EL2,93,chipA_ch1_NIFEDIPINE_100nM,FPDCFPC,FPDcF Pct Change,-37.6815,%,-37.6815,-37.6815,%,,DERIVED,,ALGORITHM,7,2026-03-22,1,NIFEDIPINE .100 nM,TREATMENT
CIPA001,EG,CIPA001-A-EL2,94,chipA_ch1_NIFEDIPINE_100nM,BPPCT,Beat Period Pct Change,-72.9575,%,-72.9575,-72.9575,%,,DERIVED,,ALGORITHM,7,2026-03-22,1,NIFEDIPINE .100 nM,TREATMENT
CIPA001,EG,CIPA001-A-EL2,95,chipA_ch1_NIFEDIPINE_100nM,AMPPCT,Amplitude Pct Change,-96.2446,%,-96.2446,-96.2446,%,,DERIVED,,ALGORITHM,7,2026-03-22,1,NIFEDIPINE .100 nM,TREATMENT
CIPA001,EG,CIPA001-A-EL2,96,chipA_ch1_NIFEDIPINE_100nM,TDPSCR,TdP Risk Score,-1,SCORE,-1,-1.0,SCORE,,DERIVED,,ALGORITHM,7,2026-03-22,1,NIFEDIPINE .100 nM,TREATMENT
CIPA001,EG,CIPA001-A-EL2,97,chipA_ch1_NIFEDIPINE_100nM,SPECCHG,Spectral Change,0.7724,SCORE,0.7724,0.7724,SCORE,,DERIVED,,ALGORITHM,7,2026-03-22,1,NIFEDIPINE .100 nM,TREATMENT
CIPA001,EG,CIPA001-A-EL2,98,chipA_ch1_NIFEDIPINE_100nM,RSKSCR,Arrhythmia Risk Score,34,SCORE,34,34.0,SCORE,,DERIVED,,ALGORITHM,7,2026-03-22,1,NIFEDIPINE .100 nM,TREATMENT
CIPA001,EG,CIPA001-A-EL2,99,chipA_ch1_NIFEDIPINE_100nM,MORPHIN,Morphology Instability,0.3852,SCORE,0.3852,0.3852,SCORE,,DERIVED,,ALGORITHM,7,2026-03-22,1,NIFEDIPINE .100 nM,TREATMENT
CIPA001,EG,CIPA001-A-EL2,100,chipA_ch1_NIFEDIPINE_100nM,EADPCT,EAD Incidence,0.0000,%,0.0000,0.0,%,,DERIVED,,ALGORITHM,7,2026-03-22,1,NIFEDIPINE .100 nM,TREATMENT
CIPA001,EG,CIPA001-A-EL1,211,chipA_ch1_NIFEDIPINE_10nM,FPD,FPD,512.6652,ms,512.6652,512.6652,ms,,DERIVED,,ALGORITHM,15,2026-03-22,1,NIFEDIPINE .10 nM,TREATMENT
CIPA001,EG,CIPA001-A-EL1,212,chipA_ch1_NIFEDIPINE_10nM,FPDCF,FPDcF,461.5532,ms,461.5532,461.5532,ms,,DERIVED,,ALGORITHM,15,2026-03-22,1,NIFEDIPINE .10 nM,TREATMENT
CIPA001,EG,CIPA001-A-EL1,213,chipA_ch1_NIFEDIPINE_10nM,BP,Beat Period,1420.6652,ms,1420.6652,1420.6652,ms,,DERIVED,,ALGORITHM,15,2026-03-22,1,NIFEDIPINE .10 nM,TREATMENT
CIPA001,EG,CIPA001-A-EL1,214,chipA_ch1_NIFEDIPINE_10nM,SPIKEAM,Spike Amplitude,991.5603,uV,991.5603,991.5603,uV,,DERIVED,,ALGORITHM,15,2026-03-22,1,NIFEDIPINE .10 nM,TREATMENT
CIPA001,EG,CIPA001-A-EL1,215,chipA_ch1_NIFEDIPINE_10nM,FPDCONF,FPD Confidence,0.7333,SCORE,0.7333,0.7333,SCORE,,DERIVED,,ALGORITHM,15,2026-03-22,1,NIFEDIPINE .10 nM,TREATMENT
CIPA001,EG,CIPA001-A-EL1,216,chipA_ch1_NIFEDIPINE_10nM,INTVL,Heart Rate,42.2337,beats/min,42.2337,42.2337,beats/min,,DERIVED,,ALGORITHM,15,2026-03-22,1,NIFEDIPINE .10 nM,TREATMENT
CIPA001,EG,CIPA001-A-EL1,217,chipA_ch1_NIFEDIPINE_10nM,QCGRADE,QC Grade,B,,B,,,,DERIVED,,ALGORITHM,15,2026-03-22,1,NIFEDIPINE .10 nM,TREATMENT
CIPA001,EG,CIPA001-A-EL1,218,chipA_ch1_NIFEDIPINE_10nM,FPDCFPC,FPDcF Pct Change,-21.0125,%,-21.0125,-21.0125,%,,DERIVED,,ALGORITHM,15,2026-03-22,1,NIFEDIPINE .10 nM,TREATMENT
CIPA001,EG,CIPA001-A-EL1,219,chipA_ch1_NIFEDIPINE_10nM,BPPCT,Beat Period Pct Change,-50.5964,%,-50.5964,-50.5964,%,,DERIVED,,ALGORITHM,15,2026-03-22,1,NIFEDIPINE .10 nM,TREATMENT
CIPA001,EG,CIPA001-A-EL1,220,chipA_ch1_NIFEDIPINE_10nM,AMPPCT,Amplitude Pct Change,-65.9216,%,-65.9216,-65.9216,%,,DERIVED,,ALGORITHM,15,2026-03-22,1,NIFEDIPINE .10 nM,TREATMENT
CIPA001,EG,CIPA001-A-EL1,221,chipA_ch1_NIFEDIPINE_10nM,TDPSCR,TdP Risk Score,-1,SCORE,-1,-1.0,SCORE,,DERIVED,,ALGORITHM,15,2026-03-22,1,NIFEDIPINE .10 nM,TREATMENT
CIPA001,EG,CIPA001-A-EL1,222,chipA_ch1_NIFEDIPINE_10nM,SPECCHG,Spectral Change,0.3747,SCORE,0.3747,0.3747,SCORE,,DERIVED,,ALGORITHM,15,2026-03-22,1,NIFEDIPINE .10 nM,TREATMENT
CIPA001,EG,CIPA001-A-EL1,223,chipA_ch1_NIFEDIPINE_10nM,RSKSCR,Arrhythmia Risk Score,31,SCORE,31,31.0,SCORE,,DERIVED,,ALGORITHM,15,2026-03-22,1,NIFEDIPINE .10 nM,TREATMENT
CIPA001,EG,CIPA001-A-EL1,224,chipA_ch1_NIFEDIPINE_10nM,MORPHIN,Morphology Instability,0.1177,SCORE,0.1177,0.1177,SCORE,,DERIVED,,ALGORITHM,15,2026-03-22,1,NIFEDIPINE .10 nM,TREATMENT
CIPA001,EG,CIPA001-A-EL1,225,chipA_ch1_NIFEDIPINE_10nM,EADPCT,EAD Incidence,4.4643,%,4.4643,4.4643,%,,DERIVED,,ALGORITHM,15,2026-03-22,1,NIFEDIPINE .10 nM,TREATMENT
CIPA001,EG,CIPA001-A-EL2,101,chipA_ch1_NIFEDIPINE_15nM,FPD,FPD,696.0871,ms,696.0871,696.0871,ms,,DERIVED,,ALGORITHM,8,2026-03-22,1,NIFEDIPINE .15 nM,TREATMENT
CIPA001,EG,CIPA001-A-EL2,102,chipA_ch1_NIFEDIPINE_15nM,FPDCF,FPDcF,766.4895,ms,766.4895,766.4895,ms,,DERIVED,,ALGORITHM,8,2026-03-22,1,NIFEDIPINE .15 nM,TREATMENT
CIPA001,EG,CIPA001-A-EL2,103,chipA_ch1_NIFEDIPINE_15nM,BP,Beat Period,887.7150,ms,887.7150,887.715,ms,,DERIVED,,ALGORITHM,8,2026-03-22,1,NIFEDIPINE .15 nM,TREATMENT
CIPA001,EG,CIPA001-A-EL2,104,chipA_ch1_NIFEDIPINE_15nM,SPIKEAM,Spike Amplitude,227.9996,uV,227.9996,227.9996,uV,,DERIVED,,ALGORITHM,8,2026-03-22,1,NIFEDIPINE .15 nM,TREATMENT
CIPA001,EG,CIPA001-A-EL2,105,chipA_ch1_NIFEDIPINE_15nM,FPDCONF,FPD Confidence,0.7888,SCORE,0.7888,0.7888,SCORE,,DERIVED,,ALGORITHM,8,2026-03-22,1,NIFEDIPINE .15 nM,TREATMENT
CIPA001,EG,CIPA001-A-EL2,106,chipA_ch1_NIFEDIPINE_15nM,INTVL,Heart Rate,67.5893,beats/min,67.5893,67.5893,beats/min,,DERIVED,,ALGORITHM,8,2026-03-22,1,NIFEDIPINE .15 nM,TREATMENT
CIPA001,EG,CIPA001-A-EL2,107,chipA_ch1_NIFEDIPINE_15nM,QCGRADE,QC Grade,B,,B,,,,DERIVED,,ALGORITHM,8,2026-03-22,1,NIFEDIPINE .15 nM,TREATMENT
CIPA001,EG,CIPA001-A-EL2,108,chipA_ch1_NIFEDIPINE_15nM,FPDCFPC,FPDcF Pct Change,31.1725,%,31.1725,31.1725,%,,DERIVED,,ALGORITHM,8,2026-03-22,1,NIFEDIPINE .15 nM,TREATMENT
CIPA001,EG,CIPA001-A-EL2,109,chipA_ch1_NIFEDIPINE_15nM,BPPCT,Beat Period Pct Change,-69.1297,%,-69.1297,-69.1297,%,,DERIVED,,ALGORITHM,8,2026-03-22,1,NIFEDIPINE .15 nM,TREATMENT
CIPA001,EG,CIPA001-A-EL2,110,chipA_ch1_NIFEDIPINE_15nM,AMPPCT,Amplitude Pct Change,-92.1640,%,-92.1640,-92.164,%,,DERIVED,,ALGORITHM,8,2026-03-22,1,NIFEDIPINE .15 nM,TREATMENT
CIPA001,EG,CIPA001-A-EL2,111,chipA_ch1_NIFEDIPINE_15nM,TDPSCR,TdP Risk Score,3,SCORE,3,3.0,SCORE,,DERIVED,,ALGORITHM,8,2026-03-22,1,NIFEDIPINE .15 nM,TREATMENT
CIPA001,EG,CIPA001-A-EL2,112,chipA_ch1_NIFEDIPINE_15nM,SPECCHG,Spectral Change,0.3437,SCORE,0.3437,0.3437,SCORE,,DERIVED,,ALGORITHM,8,2026-03-22,1,NIFEDIPINE .15 nM,TREATMENT
CIPA001,EG,CIPA001-A-EL2,113,chipA_ch1_NIFEDIPINE_15nM,RSKSCR,Arrhythmia Risk Score,66,SCORE,66,66.0,SCORE,,DERIVED,,ALGORITHM,8,2026-03-22,1,NIFEDIPINE .15 nM,TREATMENT
CIPA001,EG,CIPA001-A-EL2,114,chipA_ch1_NIFEDIPINE_15nM,MORPHIN,Morphology Instability,0.4312,SCORE,0.4312,0.4312,SCORE,,DERIVED,,ALGORITHM,8,2026-03-22,1,NIFEDIPINE .15 nM,TREATMENT
CIPA001,EG,CIPA001-A-EL2,115,chipA_ch1_NIFEDIPINE_15nM,EADPCT,EAD Incidence,0.0000,%,0.0000,0.0,%,,DERIVED,,ALGORITHM,8,2026-03-22,1,NIFEDIPINE .15 nM,TREATMENT
CIPA001,EG,CIPA001-A-EL2,116,chipA_ch1_NIFEDIPINE_50nM,FPD,FPD,240.3269,ms,240.3269,240.3269,ms,,DERIVED,,ALGORITHM,9,2026-03-22,1,NIFEDIPINE .50 nM,TREATMENT
CIPA001,EG,CIPA001-A-EL2,117,chipA_ch1_NIFEDIPINE_50nM,FPDCF,FPDcF,202.0246,ms,202.0246,202.0246,ms,,DERIVED,,ALGORITHM,9,2026-03-22,1,NIFEDIPINE .50 nM,TREATMENT
CIPA001,EG,CIPA001-A-EL2,118,chipA_ch1_NIFEDIPINE_50nM,BP,Beat Period,1719.5673,ms,1719.5673,1719.5673,ms,,DERIVED,,ALGORITHM,9,2026-03-22,1,NIFEDIPINE .50 nM,TREATMENT
CIPA001,EG,CIPA001-A-EL2,119,chipA_ch1_NIFEDIPINE_50nM,SPIKEAM,Spike Amplitude,603.8411,uV,603.8411,603.8411,uV,,DERIVED,,ALGORITHM,9,2026-03-22,1,NIFEDIPINE .50 nM,TREATMENT
CIPA001,EG,CIPA001-A-EL2,120,chipA_ch1_NIFEDIPINE_50nM,FPDCONF,FPD Confidence,0.6621,SCORE,0.6621,0.6621,SCORE,,DERIVED,,ALGORITHM,9,2026-03-22,1,NIFEDIPINE .50 nM,TREATMENT
CIPA001,EG,CIPA001-A-EL2,121,chipA_ch1_NIFEDIPINE_50nM,INTVL,Heart Rate,34.8925,beats/min,34.8925,34.8925,beats/min,,DERIVED,,ALGORITHM,9,2026-03-22,1,NIFEDIPINE .50 nM,TREATMENT
CIPA001,EG,CIPA001-A-EL2,122,chipA_ch1_NIFEDIPINE_50nM,QCGRADE,QC Grade,B,,B,,,,DERIVED,,ALGORITHM,9,2026-03-22,1,NIFEDIPINE .50 nM,TREATMENT
CIPA001,EG,CIPA001-A-EL2,123,chipA_ch1_NIFEDIPINE_50nM,FPDCFPC,FPDcF Pct Change,-65.4267,%,-65.4267,-65.4267,%,,DERIVED,,ALGORITHM,9,2026-03-22,1,NIFEDIPINE .50 nM,TREATMENT
CIPA001,EG,CIPA001-A-EL2,124,chipA_ch1_NIFEDIPINE_50nM,BPPCT,Beat Period Pct Change,-40.2020,%,-40.2020,-40.202,%,,DERIVED,,ALGORITHM,9,2026-03-22,1,NIFEDIPINE .50 nM,TREATMENT
CIPA001,EG,CIPA001-A-EL2,125,chipA_ch1_NIFEDIPINE_50nM,AMPPCT,Amplitude Pct Change,-79.2469,%,-79.2469,-79.2469,%,,DERIVED,,ALGORITHM,9,2026-03-22,1,NIFEDIPINE .50 nM,TREATMENT
CIPA001,EG,CIPA001-A-EL2,126,chipA_ch1_NIFEDIPINE_50nM,TDPSCR,TdP Risk Score,-1,SCORE,-1,-1.0,SCORE,,DERIVED,,ALGORITHM,9,2026-03-22,1,NIFEDIPINE .50 nM,TREATMENT
CIPA001,EG,CIPA001-A-EL2,127,chipA_ch1_NIFEDIPINE_50nM,SPECCHG,Spectral Change,0.0829,SCORE,0.0829,0.0829,SCORE,,DERIVED,,ALGORITHM,9,2026-03-22,1,NIFEDIPINE .50 nM,TREATMENT
CIPA001,EG,CIPA001-A-EL2,128,chipA_ch1_NIFEDIPINE_50nM,RSKSCR,Arrhythmia Risk Score,24,SCORE,24,24.0,SCORE,,DERIVED,,ALGORITHM,9,2026-03-22,1,NIFEDIPINE .50 nM,TREATMENT
CIPA001,EG,CIPA001-A-EL2,129,chipA_ch1_NIFEDIPINE_50nM,MORPHIN,Morphology Instability,0.3553,SCORE,0.3553,0.3553,SCORE,,DERIVED,,ALGORITHM,9,2026-03-22,1,NIFEDIPINE .50 nM,TREATMENT
CIPA001,EG,CIPA001-A-EL2,130,chipA_ch1_NIFEDIPINE_50nM,EADPCT,EAD Incidence,0.9615,%,0.9615,0.9615,%,,DERIVED,,ALGORITHM,9,2026-03-22,1,NIFEDIPINE .50 nM,TREATMENT
CIPA001,EG,CIPA001-A-EL1,226,chipA_ch1_NIFEDIPINE_5nM,FPD,FPD,311.1040,ms,311.1040,311.104,ms,,DERIVED,,ALGORITHM,16,2026-03-22,1,NIFEDIPINE .5 nM,TREATMENT
CIPA001,EG,CIPA001-A-EL1,227,chipA_ch1_NIFEDIPINE_5nM,FPDCF,FPDcF,293.3404,ms,293.3404,293.3404,ms,,DERIVED,,ALGORITHM,16,2026-03-22,1,NIFEDIPINE .5 nM,TREATMENT
CIPA001,EG,CIPA001-A-EL1,228,chipA_ch1_NIFEDIPINE_5nM,BP,Beat Period,1200.6980,ms,1200.6980,1200.698,ms,,DERIVED,,ALGORITHM,16,2026-03-22,1,NIFEDIPINE .5 nM,TREATMENT
CIPA001,EG,CIPA001-A-EL1,229,chipA_ch1_NIFEDIPINE_5nM,SPIKEAM,Spike Amplitude,1647.3417,uV,1647.3417,1647.3417,uV,,DERIVED,,ALGORITHM,16,2026-03-22,1,NIFEDIPINE .5 nM,TREATMENT
CIPA001,EG,CIPA001-A-EL1,230,chipA_ch1_NIFEDIPINE_5nM,FPDCONF,FPD Confidence,0.8266,SCORE,0.8266,0.8266,SCORE,,DERIVED,,ALGORITHM,16,2026-03-22,1,NIFEDIPINE .5 nM,TREATMENT
CIPA001,EG,CIPA001-A-EL1,231,chipA_ch1_NIFEDIPINE_5nM,INTVL,Heart Rate,49.9709,beats/min,49.9709,49.9709,beats/min,,DERIVED,,ALGORITHM,16,2026-03-22,1,NIFEDIPINE .5 nM,TREATMENT
CIPA001,EG,CIPA001-A-EL1,232,chipA_ch1_NIFEDIPINE_5nM,QCGRADE,QC Grade,B,,B,,,,DERIVED,,ALGORITHM,16,2026-03-22,1,NIFEDIPINE .5 nM,TREATMENT
CIPA001,EG,CIPA001-A-EL1,233,chipA_ch1_NIFEDIPINE_5nM,FPDCFPC,FPDcF Pct Change,-49.7995,%,-49.7995,-49.7995,%,,DERIVED,,ALGORITHM,16,2026-03-22,1,NIFEDIPINE .5 nM,TREATMENT
CIPA001,EG,CIPA001-A-EL1,234,chipA_ch1_NIFEDIPINE_5nM,BPPCT,Beat Period Pct Change,-58.2457,%,-58.2457,-58.2457,%,,DERIVED,,ALGORITHM,16,2026-03-22,1,NIFEDIPINE .5 nM,TREATMENT
CIPA001,EG,CIPA001-A-EL1,235,chipA_ch1_NIFEDIPINE_5nM,AMPPCT,Amplitude Pct Change,-43.3834,%,-43.3834,-43.3834,%,,DERIVED,,ALGORITHM,16,2026-03-22,1,NIFEDIPINE .5 nM,TREATMENT
CIPA001,EG,CIPA001-A-EL1,236,chipA_ch1_NIFEDIPINE_5nM,TDPSCR,TdP Risk Score,-1,SCORE,-1,-1.0,SCORE,,DERIVED,,ALGORITHM,16,2026-03-22,1,NIFEDIPINE .5 nM,TREATMENT
CIPA001,EG,CIPA001-A-EL1,237,chipA_ch1_NIFEDIPINE_5nM,SPECCHG,Spectral Change,0.2309,SCORE,0.2309,0.2309,SCORE,,DERIVED,,ALGORITHM,16,2026-03-22,1,NIFEDIPINE .5 nM,TREATMENT
CIPA001,EG,CIPA001-A-EL1,238,chipA_ch1_NIFEDIPINE_5nM,RSKSCR,Arrhythmia Risk Score,6,SCORE,6,6.0,SCORE,,DERIVED,,ALGORITHM,16,2026-03-22,1,NIFEDIPINE .5 nM,TREATMENT
CIPA001,EG,CIPA001-A-EL1,239,chipA_ch1_NIFEDIPINE_5nM,MORPHIN,Morphology Instability,0.1167,SCORE,0.1167,0.1167,SCORE,,DERIVED,,ALGORITHM,16,2026-03-22,1,NIFEDIPINE .5 nM,TREATMENT
CIPA001,EG,CIPA001-A-EL1,240,chipA_ch1_NIFEDIPINE_5nM,EADPCT,EAD Incidence,0.0000,%,0.0000,0.0,%,,DERIVED,,ALGORITHM,16,2026-03-22,1,NIFEDIPINE .5 nM,TREATMENT
CIPA001,EG,CIPA001-A-EL1,241,chipA_ch3_DOFETILIDE_100_nM,FPD,FPD,614.5128,ms,614.5128,614.5128,ms,,DERIVED,,ALGORITHM,17,2026-03-22,1,DOFETILIDE .100. nM,TREATMENT
CIPA001,EG,CIPA001-A-EL1,242,chipA_ch3_DOFETILIDE_100_nM,FPDCF,FPDcF,532.8340,ms,532.8340,532.834,ms,,DERIVED,,ALGORITHM,17,2026-03-22,1,DOFETILIDE .100. nM,TREATMENT
CIPA001,EG,CIPA001-A-EL1,243,chipA_ch3_DOFETILIDE_100_nM,BP,Beat Period,1530.0726,ms,1530.0726,1530.0726,ms,,DERIVED,,ALGORITHM,17,2026-03-22,1,DOFETILIDE .100. nM,TREATMENT
CIPA001,EG,CIPA001-A-EL1,244,chipA_ch3_DOFETILIDE_100_nM,SPIKEAM,Spike Amplitude,214.1706,uV,214.1706,214.1706,uV,,DERIVED,,ALGORITHM,17,2026-03-22,1,DOFETILIDE .100. nM,TREATMENT
CIPA001,EG,CIPA001-A-EL1,245,chipA_ch3_DOFETILIDE_100_nM,FPDCONF,FPD Confidence,0.7863,SCORE,0.7863,0.7863,SCORE,,DERIVED,,ALGORITHM,17,2026-03-22,1,DOFETILIDE .100. nM,TREATMENT
CIPA001,EG,CIPA001-A-EL1,246,chipA_ch3_DOFETILIDE_100_nM,INTVL,Heart Rate,39.2138,beats/min,39.2138,39.2138,beats/min,,DERIVED,,ALGORITHM,17,2026-03-22,1,DOFETILIDE .100. nM,TREATMENT
CIPA001,EG,CIPA001-A-EL1,247,chipA_ch3_DOFETILIDE_100_nM,QCGRADE,QC Grade,B,,B,,,,DERIVED,,ALGORITHM,17,2026-03-22,1,DOFETILIDE .100. nM,TREATMENT
CIPA001,EG,CIPA001-A-EL1,248,chipA_ch3_DOFETILIDE_100_nM,RSKSCR,Arrhythmia Risk Score,24,SCORE,24,24.0,SCORE,,DERIVED,,ALGORITHM,17,2026-03-22,1,DOFETILIDE .100. nM,TREATMENT
CIPA001,EG,CIPA001-A-EL1,249,chipA_ch3_DOFETILIDE_100_nM,MORPHIN,Morphology Instability,0.2168,SCORE,0.2168,0.2168,SCORE,,DERIVED,,ALGORITHM,17,2026-03-22,1,DOFETILIDE .100. nM,TREATMENT
CIPA001,EG,CIPA001-A-EL1,250,chipA_ch3_DOFETILIDE_100_nM,EADPCT,EAD Incidence,0.0000,%,0.0000,0.0,%,,DERIVED,,ALGORITHM,17,2026-03-22,1,DOFETILIDE .100. nM,TREATMENT
CIPA001,EG,CIPA001-A-EL1,251,chipA_ch3_DOFETILIDE_6_nM,FPD,FPD,597.1870,ms,597.1870,597.187,ms,,DERIVED,,ALGORITHM,18,2026-03-22,1,DOFETILIDE .6. nM,TREATMENT
CIPA001,EG,CIPA001-A-EL1,252,chipA_ch3_DOFETILIDE_6_nM,FPDCF,FPDcF,515.0632,ms,515.0632,515.0632,ms,,DERIVED,,ALGORITHM,18,2026-03-22,1,DOFETILIDE .6. nM,TREATMENT
CIPA001,EG,CIPA001-A-EL1,253,chipA_ch3_DOFETILIDE_6_nM,BP,Beat Period,1559.2261,ms,1559.2261,1559.2261,ms,,DERIVED,,ALGORITHM,18,2026-03-22,1,DOFETILIDE .6. nM,TREATMENT
CIPA001,EG,CIPA001-A-EL1,254,chipA_ch3_DOFETILIDE_6_nM,SPIKEAM,Spike Amplitude,188.2697,uV,188.2697,188.2697,uV,,DERIVED,,ALGORITHM,18,2026-03-22,1,DOFETILIDE .6. nM,TREATMENT
CIPA001,EG,CIPA001-A-EL1,255,chipA_ch3_DOFETILIDE_6_nM,FPDCONF,FPD Confidence,0.7730,SCORE,0.7730,0.773,SCORE,,DERIVED,,ALGORITHM,18,2026-03-22,1,DOFETILIDE .6. nM,TREATMENT
CIPA001,EG,CIPA001-A-EL1,256,chipA_ch3_DOFETILIDE_6_nM,INTVL,Heart Rate,38.4806,beats/min,38.4806,38.4806,beats/min,,DERIVED,,ALGORITHM,18,2026-03-22,1,DOFETILIDE .6. nM,TREATMENT
CIPA001,EG,CIPA001-A-EL1,257,chipA_ch3_DOFETILIDE_6_nM,QCGRADE,QC Grade,B,,B,,,,DERIVED,,ALGORITHM,18,2026-03-22,1,DOFETILIDE .6. nM,TREATMENT
CIPA001,EG,CIPA001-A-EL1,258,chipA_ch3_DOFETILIDE_6_nM,RSKSCR,Arrhythmia Risk Score,16,SCORE,16,16.0,SCORE,,DERIVED,,ALGORITHM,18,2026-03-22,1,DOFETILIDE .6. nM,TREATMENT
CIPA001,EG,CIPA001-A-EL1,259,chipA_ch3_DOFETILIDE_6_nM,MORPHIN,Morphology Instability,0.1631,SCORE,0.1631,0.1631,SCORE,,DERIVED,,ALGORITHM,18,2026-03-22,1,DOFETILIDE .6. nM,TREATMENT
CIPA001,EG,CIPA001-A-EL1,260,chipA_ch3_DOFETILIDE_6_nM,EADPCT,EAD Incidence,0.0000,%,0.0000,0.0,%,,DERIVED,,ALGORITHM,18,2026-03-22,1,DOFETILIDE .6. nM,TREATMENT
CIPA001,EG,CIPA001-D-EL1,21,chipD_ch1_Dofe_0.3nM,FPD,FPD,461.0138,ms,461.0138,461.0138,ms,,DERIVED,,ALGORITHM,3,2026-03-22,1,DOFETILIDE .0.3 nM,TREATMENT
CIPA001,EG,CIPA001-D-EL1,22,chipD_ch1_Dofe_0.3nM,FPDCF,FPDcF,466.8882,ms,466.8882,466.8882,ms,,DERIVED,,ALGORITHM,3,2026-03-22,1,DOFETILIDE .0.3 nM,TREATMENT
CIPA001,EG,CIPA001-D-EL1,23,chipD_ch1_Dofe_0.3nM,BP,Beat Period,986.1740,ms,986.1740,986.174,ms,,DERIVED,,ALGORITHM,3,2026-03-22,1,DOFETILIDE .0.3 nM,TREATMENT
CIPA001,EG,CIPA001-D-EL1,24,chipD_ch1_Dofe_0.3nM,SPIKEAM,Spike Amplitude,301.7005,uV,301.7005,301.7005,uV,,DERIVED,,ALGORITHM,3,2026-03-22,1,DOFETILIDE .0.3 nM,TREATMENT
CIPA001,EG,CIPA001-D-EL1,25,chipD_ch1_Dofe_0.3nM,FPDCONF,FPD Confidence,0.7838,SCORE,0.7838,0.7838,SCORE,,DERIVED,,ALGORITHM,3,2026-03-22,1,DOFETILIDE .0.3 nM,TREATMENT
CIPA001,EG,CIPA001-D-EL1,26,chipD_ch1_Dofe_0.3nM,INTVL,Heart Rate,60.8412,beats/min,60.8412,60.8412,beats/min,,DERIVED,,ALGORITHM,3,2026-03-22,1,DOFETILIDE .0.3 nM,TREATMENT
CIPA001,EG,CIPA001-D-EL1,27,chipD_ch1_Dofe_0.3nM,QCGRADE,QC Grade,A,,A,,,,DERIVED,,ALGORITHM,3,2026-03-22,1,DOFETILIDE .0.3 nM,TREATMENT
CIPA001,EG,CIPA001-D-EL1,28,chipD_ch1_Dofe_0.3nM,RSKSCR,Arrhythmia Risk Score,26,SCORE,26,26.0,SCORE,,DERIVED,,ALGORITHM,3,2026-03-22,1,DOFETILIDE .0.3 nM,TREATMENT
CIPA001,EG,CIPA001-D-EL1,29,chipD_ch1_Dofe_0.3nM,MORPHIN,Morphology Instability,0.3851,SCORE,0.3851,0.3851,SCORE,,DERIVED,,ALGORITHM,3,2026-03-22,1,DOFETILIDE .0.3 nM,TREATMENT
CIPA001,EG,CIPA001-D-EL1,30,chipD_ch1_Dofe_0.3nM,EADPCT,EAD Incidence,0.0000,%,0.0000,0.0,%,,DERIVED,,ALGORITHM,3,2026-03-22,1,DOFETILIDE .0.3 nM,TREATMENT
CIPA001,EG,CIPA001-D-EL1,31,chipD_ch1_Dofe_10nM,FPD,FPD,443.5722,ms,443.5722,443.5722,ms,,DERIVED,,ALGORITHM,4,2026-03-22,1,DOFETILIDE .10 nM,TREATMENT
CIPA001,EG,CIPA001-D-EL1,32,chipD_ch1_Dofe_10nM,FPDCF,FPDcF,475.0103,ms,475.0103,475.0103,ms,,DERIVED,,ALGORITHM,4,2026-03-22,1,DOFETILIDE .10 nM,TREATMENT
CIPA001,EG,CIPA001-D-EL1,33,chipD_ch1_Dofe_10nM,BP,Beat Period,953.3936,ms,953.3936,953.3936,ms,,DERIVED,,ALGORITHM,4,2026-03-22,1,DOFETILIDE .10 nM,TREATMENT
CIPA001,EG,CIPA001-D-EL1,34,chipD_ch1_Dofe_10nM,SPIKEAM,Spike Amplitude,222.2570,uV,222.2570,222.257,uV,,DERIVED,,ALGORITHM,4,2026-03-22,1,DOFETILIDE .10 nM,TREATMENT
CIPA001,EG,CIPA001-D-EL1,35,chipD_ch1_Dofe_10nM,FPDCONF,FPD Confidence,0.7190,SCORE,0.7190,0.719,SCORE,,DERIVED,,ALGORITHM,4,2026-03-22,1,DOFETILIDE .10 nM,TREATMENT
CIPA001,EG,CIPA001-D-EL1,36,chipD_ch1_Dofe_10nM,INTVL,Heart Rate,62.9331,beats/min,62.9331,62.9331,beats/min,,DERIVED,,ALGORITHM,4,2026-03-22,1,DOFETILIDE .10 nM,TREATMENT
CIPA001,EG,CIPA001-D-EL1,37,chipD_ch1_Dofe_10nM,QCGRADE,QC Grade,D,,D,,,,DERIVED,,ALGORITHM,4,2026-03-22,1,DOFETILIDE .10 nM,TREATMENT
CIPA001,EG,CIPA001-D-EL1,38,chipD_ch1_Dofe_10nM,RSKSCR,Arrhythmia Risk Score,34,SCORE,34,34.0,SCORE,,DERIVED,,ALGORITHM,4,2026-03-22,1,DOFETILIDE .10 nM,TREATMENT
CIPA001,EG,CIPA001-D-EL1,39,chipD_ch1_Dofe_10nM,MORPHIN,Morphology Instability,0.6739,SCORE,0.6739,0.6739,SCORE,,DERIVED,,ALGORITHM,4,2026-03-22,1,DOFETILIDE .10 nM,TREATMENT
CIPA001,EG,CIPA001-D-EL1,40,chipD_ch1_Dofe_10nM,EADPCT,EAD Incidence,0.0000,%,0.0000,0.0,%,,DERIVED,,ALGORITHM,4,2026-03-22,1,DOFETILIDE .10 nM,TREATMENT
CIPA001,EG,CIPA001-D-EL1,41,chipD_ch1_Dofe_1nM,FPD,FPD,646.1559,ms,646.1559,646.1559,ms,,DERIVED,,ALGORITHM,5,2026-03-22,1,DOFETILIDE .1 nM,TREATMENT
CIPA001,EG,CIPA001-D-EL1,42,chipD_ch1_Dofe_1nM,FPDCF,FPDcF,606.0368,ms,606.0368,606.0368,ms,,DERIVED,,ALGORITHM,5,2026-03-22,1,DOFETILIDE .1 nM,TREATMENT
CIPA001,EG,CIPA001-D-EL1,43,chipD_ch1_Dofe_1nM,BP,Beat Period,1286.9247,ms,1286.9247,1286.9247,ms,,DERIVED,,ALGORITHM,5,2026-03-22,1,DOFETILIDE .1 nM,TREATMENT
CIPA001,EG,CIPA001-D-EL1,44,chipD_ch1_Dofe_1nM,SPIKEAM,Spike Amplitude,154.2453,uV,154.2453,154.2453,uV,,DERIVED,,ALGORITHM,5,2026-03-22,1,DOFETILIDE .1 nM,TREATMENT
CIPA001,EG,CIPA001-D-EL1,45,chipD_ch1_Dofe_1nM,FPDCONF,FPD Confidence,0.8139,SCORE,0.8139,0.8139,SCORE,,DERIVED,,ALGORITHM,5,2026-03-22,1,DOFETILIDE .1 nM,TREATMENT
CIPA001,EG,CIPA001-D-EL1,46,chipD_ch1_Dofe_1nM,INTVL,Heart Rate,46.6228,beats/min,46.6228,46.6228,beats/min,,DERIVED,,ALGORITHM,5,2026-03-22,1,DOFETILIDE .1 nM,TREATMENT
CIPA001,EG,CIPA001-D-EL1,47,chipD_ch1_Dofe_1nM,QCGRADE,QC Grade,B,,B,,,,DERIVED,,ALGORITHM,5,2026-03-22,1,DOFETILIDE .1 nM,TREATMENT
CIPA001,EG,CIPA001-D-EL1,48,chipD_ch1_Dofe_1nM,RSKSCR,Arrhythmia Risk Score,26,SCORE,26,26.0,SCORE,,DERIVED,,ALGORITHM,5,2026-03-22,1,DOFETILIDE .1 nM,TREATMENT
CIPA001,EG,CIPA001-D-EL1,49,chipD_ch1_Dofe_1nM,MORPHIN,Morphology Instability,0.1934,SCORE,0.1934,0.1934,SCORE,,DERIVED,,ALGORITHM,5,2026-03-22,1,DOFETILIDE .1 nM,TREATMENT
CIPA001,EG,CIPA001-D-EL1,50,chipD_ch1_Dofe_1nM,EADPCT,EAD Incidence,0.0000,%,0.0000,0.0,%,,DERIVED,,ALGORITHM,5,2026-03-22,1,DOFETILIDE .1 nM,TREATMENT
CIPA001,EG,CIPA001-D-EL1,51,chipD_ch1_Dofe_2nM,FPD,FPD,685.3721,ms,685.3721,685.3721,ms,,DERIVED,,ALGORITHM,6,2026-03-22,1,DOFETILIDE .2 nM,TREATMENT
CIPA001,EG,CIPA001-D-EL1,52,chipD_ch1_Dofe_2nM,FPDCF,FPDcF,625.8630,ms,625.8630,625.863,ms,,DERIVED,,ALGORITHM,6,2026-03-22,1,DOFETILIDE .2 nM,TREATMENT
CIPA001,EG,CIPA001-D-EL1,53,chipD_ch1_Dofe_2nM,BP,Beat Period,1383.3062,ms,1383.3062,1383.3062,ms,,DERIVED,,ALGORITHM,6,2026-03-22,1,DOFETILIDE .2 nM,TREATMENT
CIPA001,EG,CIPA001-D-EL1,54,chipD_ch1_Dofe_2nM,SPIKEAM,Spike Amplitude,168.1023,uV,168.1023,168.1023,uV,,DERIVED,,ALGORITHM,6,2026-03-22,1,DOFETILIDE .2 nM,TREATMENT
CIPA001,EG,CIPA001-D-EL1,55,chipD_ch1_Dofe_2nM,FPDCONF,FPD Confidence,0.6440,SCORE,0.6440,0.644,SCORE,,DERIVED,,ALGORITHM,6,2026-03-22,1,DOFETILIDE .2 nM,TREATMENT
CIPA001,EG,CIPA001-D-EL1,56,chipD_ch1_Dofe_2nM,INTVL,Heart Rate,43.3743,beats/min,43.3743,43.3743,beats/min,,DERIVED,,ALGORITHM,6,2026-03-22,1,DOFETILIDE .2 nM,TREATMENT
CIPA001,EG,CIPA001-D-EL1,57,chipD_ch1_Dofe_2nM,QCGRADE,QC Grade,B,,B,,,,DERIVED,,ALGORITHM,6,2026-03-22,1,DOFETILIDE .2 nM,TREATMENT
CIPA001,EG,CIPA001-D-EL1,58,chipD_ch1_Dofe_2nM,RSKSCR,Arrhythmia Risk Score,24,SCORE,24,24.0,SCORE,,DERIVED,,ALGORITHM,6,2026-03-22,1,DOFETILIDE .2 nM,TREATMENT
CIPA001,EG,CIPA001-D-EL1,59,chipD_ch1_Dofe_2nM,MORPHIN,Morphology Instability,0.2734,SCORE,0.2734,0.2734,SCORE,,DERIVED,,ALGORITHM,6,2026-03-22,1,DOFETILIDE .2 nM,TREATMENT
CIPA001,EG,CIPA001-D-EL1,60,chipD_ch1_Dofe_2nM,EADPCT,EAD Incidence,0.0000,%,0.0000,0.0,%,,DERIVED,,ALGORITHM,6,2026-03-22,1,DOFETILIDE .2 nM,TREATMENT
CIPA001,EG,CIPA001-D-EL1,61,chipD_ch1_Dofe_3nM,FPD,FPD,740.7296,ms,740.7296,740.7296,ms,,DERIVED,,ALGORITHM,7,2026-03-22,1,DOFETILIDE .3 nM,TREATMENT
CIPA001,EG,CIPA001-D-EL1,62,chipD_ch1_Dofe_3nM,FPDCF,FPDcF,693.2064,ms,693.2064,693.2064,ms,,DERIVED,,ALGORITHM,7,2026-03-22,1,DOFETILIDE .3 nM,TREATMENT
CIPA001,EG,CIPA001-D-EL1,63,chipD_ch1_Dofe_3nM,BP,Beat Period,1321.8630,ms,1321.8630,1321.863,ms,,DERIVED,,ALGORITHM,7,2026-03-22,1,DOFETILIDE .3 nM,TREATMENT
CIPA001,EG,CIPA001-D-EL1,64,chipD_ch1_Dofe_3nM,SPIKEAM,Spike Amplitude,183.8604,uV,183.8604,183.8604,uV,,DERIVED,,ALGORITHM,7,2026-03-22,1,DOFETILIDE .3 nM,TREATMENT
CIPA001,EG,CIPA001-D-EL1,65,chipD_ch1_Dofe_3nM,FPDCONF,FPD Confidence,0.8055,SCORE,0.8055,0.8055,SCORE,,DERIVED,,ALGORITHM,7,2026-03-22,1,DOFETILIDE .3 nM,TREATMENT
CIPA001,EG,CIPA001-D-EL1,66,chipD_ch1_Dofe_3nM,INTVL,Heart Rate,45.3905,beats/min,45.3905,45.3905,beats/min,,DERIVED,,ALGORITHM,7,2026-03-22,1,DOFETILIDE .3 nM,TREATMENT
CIPA001,EG,CIPA001-D-EL1,67,chipD_ch1_Dofe_3nM,QCGRADE,QC Grade,B,,B,,,,DERIVED,,ALGORITHM,7,2026-03-22,1,DOFETILIDE .3 nM,TREATMENT
CIPA001,EG,CIPA001-D-EL1,68,chipD_ch1_Dofe_3nM,RSKSCR,Arrhythmia Risk Score,40,SCORE,40,40.0,SCORE,,DERIVED,,ALGORITHM,7,2026-03-22,1,DOFETILIDE .3 nM,TREATMENT
CIPA001,EG,CIPA001-D-EL1,69,chipD_ch1_Dofe_3nM,MORPHIN,Morphology Instability,0.3322,SCORE,0.3322,0.3322,SCORE,,DERIVED,,ALGORITHM,7,2026-03-22,1,DOFETILIDE .3 nM,TREATMENT
CIPA001,EG,CIPA001-D-EL1,70,chipD_ch1_Dofe_3nM,EADPCT,EAD Incidence,0.0000,%,0.0000,0.0,%,,DERIVED,,ALGORITHM,7,2026-03-22,1,DOFETILIDE .3 nM,TREATMENT
CIPA001,EG,CIPA001-D-EL1,71,chipD_ch1_Dofe_6nM,FPD,FPD,433.1691,ms,433.1691,433.1691,ms,,DERIVED,,ALGORITHM,8,2026-03-22,1,DOFETILIDE .6 nM,TREATMENT
CIPA001,EG,CIPA001-D-EL1,72,chipD_ch1_Dofe_6nM,FPDCF,FPDcF,411.6242,ms,411.6242,411.6242,ms,,DERIVED,,ALGORITHM,8,2026-03-22,1,DOFETILIDE .6 nM,TREATMENT
CIPA001,EG,CIPA001-D-EL1,73,chipD_ch1_Dofe_6nM,BP,Beat Period,1319.1287,ms,1319.1287,1319.1287,ms,,DERIVED,,ALGORITHM,8,2026-03-22,1,DOFETILIDE .6 nM,TREATMENT
CIPA001,EG,CIPA001-D-EL1,74,chipD_ch1_Dofe_6nM,SPIKEAM,Spike Amplitude,215.0366,uV,215.0366,215.0366,uV,,DERIVED,,ALGORITHM,8,2026-03-22,1,DOFETILIDE .6 nM,TREATMENT
CIPA001,EG,CIPA001-D-EL1,75,chipD_ch1_Dofe_6nM,FPDCONF,FPD Confidence,0.6267,SCORE,0.6267,0.6267,SCORE,,DERIVED,,ALGORITHM,8,2026-03-22,1,DOFETILIDE .6 nM,TREATMENT
CIPA001,EG,CIPA001-D-EL1,76,chipD_ch1_Dofe_6nM,INTVL,Heart Rate,45.4846,beats/min,45.4846,45.4846,beats/min,,DERIVED,,ALGORITHM,8,2026-03-22,1,DOFETILIDE .6 nM,TREATMENT
CIPA001,EG,CIPA001-D-EL1,77,chipD_ch1_Dofe_6nM,QCGRADE,QC Grade,C,,C,,,,DERIVED,,ALGORITHM,8,2026-03-22,1,DOFETILIDE .6 nM,TREATMENT
CIPA001,EG,CIPA001-D-EL1,78,chipD_ch1_Dofe_6nM,RSKSCR,Arrhythmia Risk Score,50,SCORE,50,50.0,SCORE,,DERIVED,,ALGORITHM,8,2026-03-22,1,DOFETILIDE .6 nM,TREATMENT
CIPA001,EG,CIPA001-D-EL1,79,chipD_ch1_Dofe_6nM,MORPHIN,Morphology Instability,0.6484,SCORE,0.6484,0.6484,SCORE,,DERIVED,,ALGORITHM,8,2026-03-22,1,DOFETILIDE .6 nM,TREATMENT
CIPA001,EG,CIPA001-D-EL1,80,chipD_ch1_Dofe_6nM,EADPCT,EAD Incidence,0.0000,%,0.0000,0.0,%,,DERIVED,,ALGORITHM,8,2026-03-22,1,DOFETILIDE .6 nM,TREATMENT
CIPA001,EG,CIPA001-D-EL1,81,chipD_ch1_Dofe_nM,FPD,FPD,646.1559,ms,646.1559,646.1559,ms,,DERIVED,,ALGORITHM,9,2026-03-22,1,DOFETILIDE . nM,TREATMENT
CIPA001,EG,CIPA001-D-EL1,82,chipD_ch1_Dofe_nM,FPDCF,FPDcF,606.0368,ms,606.0368,606.0368,ms,,DERIVED,,ALGORITHM,9,2026-03-22,1,DOFETILIDE . nM,TREATMENT
CIPA001,EG,CIPA001-D-EL1,83,chipD_ch1_Dofe_nM,BP,Beat Period,1286.9247,ms,1286.9247,1286.9247,ms,,DERIVED,,ALGORITHM,9,2026-03-22,1,DOFETILIDE . nM,TREATMENT
CIPA001,EG,CIPA001-D-EL1,84,chipD_ch1_Dofe_nM,SPIKEAM,Spike Amplitude,154.2453,uV,154.2453,154.2453,uV,,DERIVED,,ALGORITHM,9,2026-03-22,1,DOFETILIDE . nM,TREATMENT
CIPA001,EG,CIPA001-D-EL1,85,chipD_ch1_Dofe_nM,FPDCONF,FPD Confidence,0.8139,SCORE,0.8139,0.8139,SCORE,,DERIVED,,ALGORITHM,9,2026-03-22,1,DOFETILIDE . nM,TREATMENT
CIPA001,EG,CIPA001-D-EL1,86,chipD_ch1_Dofe_nM,INTVL,Heart Rate,46.6228,beats/min,46.6228,46.6228,beats/min,,DERIVED,,ALGORITHM,9,2026-03-22,1,DOFETILIDE . nM,TREATMENT
CIPA001,EG,CIPA001-D-EL1,87,chipD_ch1_Dofe_nM,QCGRADE,QC Grade,B,,B,,,,DERIVED,,ALGORITHM,9,2026-03-22,1,DOFETILIDE . nM,TREATMENT
CIPA001,EG,CIPA001-D-EL1,88,chipD_ch1_Dofe_nM,RSKSCR,Arrhythmia Risk Score,26,SCORE,26,26.0,SCORE,,DERIVED,,ALGORITHM,9,2026-03-22,1,DOFETILIDE . nM,TREATMENT
CIPA001,EG,CIPA001-D-EL1,89,chipD_ch1_Dofe_nM,MORPHIN,Morphology Instability,0.1934,SCORE,0.1934,0.1934,SCORE,,DERIVED,,ALGORITHM,9,2026-03-22,1,DOFETILIDE . nM,TREATMENT
CIPA001,EG,CIPA001-D-EL1,90,chipD_ch1_Dofe_nM,EADPCT,EAD Incidence,0.0000,%,0.0000,0.0,%,,DERIVED,,ALGORITHM,9,2026-03-22,1,DOFETILIDE . nM,TREATMENT
CIPA001,EG,CIPA001-D-EL1,91,chipD_ch2_Alfus_1000uM,FPD,FPD,686.7628,ms,686.7628,686.7628,ms,,DERIVED,,ALGORITHM,10,2026-03-22,1,ALFUZOSIN .1000 uM,TREATMENT
CIPA001,EG,CIPA001-D-EL1,92,chipD_ch2_Alfus_1000uM,FPDCF,FPDcF,661.0499,ms,661.0499,661.0499,ms,,DERIVED,,ALGORITHM,10,2026-03-22,1,ALFUZOSIN .1000 uM,TREATMENT
CIPA001,EG,CIPA001-D-EL1,93,chipD_ch2_Alfus_1000uM,BP,Beat Period,1294.8333,ms,1294.8333,1294.8333,ms,,DERIVED,,ALGORITHM,10,2026-03-22,1,ALFUZOSIN .1000 uM,TREATMENT
CIPA001,EG,CIPA001-D-EL1,94,chipD_ch2_Alfus_1000uM,SPIKEAM,Spike Amplitude,436.7362,uV,436.7362,436.7362,uV,,DERIVED,,ALGORITHM,10,2026-03-22,1,ALFUZOSIN .1000 uM,TREATMENT
CIPA001,EG,CIPA001-D-EL1,95,chipD_ch2_Alfus_1000uM,FPDCONF,FPD Confidence,0.7183,SCORE,0.7183,0.7183,SCORE,,DERIVED,,ALGORITHM,10,2026-03-22,1,ALFUZOSIN .1000 uM,TREATMENT
CIPA001,EG,CIPA001-D-EL1,96,chipD_ch2_Alfus_1000uM,INTVL,Heart Rate,46.3380,beats/min,46.3380,46.338,beats/min,,DERIVED,,ALGORITHM,10,2026-03-22,1,ALFUZOSIN .1000 uM,TREATMENT
CIPA001,EG,CIPA001-D-EL1,97,chipD_ch2_Alfus_1000uM,QCGRADE,QC Grade,C,,C,,,,DERIVED,,ALGORITHM,10,2026-03-22,1,ALFUZOSIN .1000 uM,TREATMENT
CIPA001,EG,CIPA001-D-EL1,98,chipD_ch2_Alfus_1000uM,RSKSCR,Arrhythmia Risk Score,43,SCORE,43,43.0,SCORE,,DERIVED,,ALGORITHM,10,2026-03-22,1,ALFUZOSIN .1000 uM,TREATMENT
CIPA001,EG,CIPA001-D-EL1,99,chipD_ch2_Alfus_1000uM,MORPHIN,Morphology Instability,0.7002,SCORE,0.7002,0.7002,SCORE,,DERIVED,,ALGORITHM,10,2026-03-22,1,ALFUZOSIN .1000 uM,TREATMENT
CIPA001,EG,CIPA001-D-EL1,100,chipD_ch2_Alfus_1000uM,EADPCT,EAD Incidence,0.0000,%,0.0000,0.0,%,,DERIVED,,ALGORITHM,10,2026-03-22,1,ALFUZOSIN .1000 uM,TREATMENT
CIPA001,EG,CIPA001-D-EL2,51,chipD_ch2_Alfus_100uM,FPD,FPD,754.5490,ms,754.5490,754.549,ms,,DERIVED,,ALGORITHM,6,2026-03-22,1,ALFUZOSIN .100 uM,TREATMENT
CIPA001,EG,CIPA001-D-EL2,52,chipD_ch2_Alfus_100uM,FPDCF,FPDcF,799.5070,ms,799.5070,799.507,ms,,DERIVED,,ALGORITHM,6,2026-03-22,1,ALFUZOSIN .100 uM,TREATMENT
CIPA001,EG,CIPA001-D-EL2,53,chipD_ch2_Alfus_100uM,BP,Beat Period,920.9046,ms,920.9046,920.9046,ms,,DERIVED,,ALGORITHM,6,2026-03-22,1,ALFUZOSIN .100 uM,TREATMENT
CIPA001,EG,CIPA001-D-EL2,54,chipD_ch2_Alfus_100uM,SPIKEAM,Spike Amplitude,197.8344,uV,197.8344,197.8344,uV,,DERIVED,,ALGORITHM,6,2026-03-22,1,ALFUZOSIN .100 uM,TREATMENT
CIPA001,EG,CIPA001-D-EL2,55,chipD_ch2_Alfus_100uM,FPDCONF,FPD Confidence,0.7155,SCORE,0.7155,0.7155,SCORE,,DERIVED,,ALGORITHM,6,2026-03-22,1,ALFUZOSIN .100 uM,TREATMENT
CIPA001,EG,CIPA001-D-EL2,56,chipD_ch2_Alfus_100uM,INTVL,Heart Rate,65.1533,beats/min,65.1533,65.1533,beats/min,,DERIVED,,ALGORITHM,6,2026-03-22,1,ALFUZOSIN .100 uM,TREATMENT
CIPA001,EG,CIPA001-D-EL2,57,chipD_ch2_Alfus_100uM,QCGRADE,QC Grade,B,,B,,,,DERIVED,,ALGORITHM,6,2026-03-22,1,ALFUZOSIN .100 uM,TREATMENT
CIPA001,EG,CIPA001-D-EL2,58,chipD_ch2_Alfus_100uM,RSKSCR,Arrhythmia Risk Score,35,SCORE,35,35.0,SCORE,,DERIVED,,ALGORITHM,6,2026-03-22,1,ALFUZOSIN .100 uM,TREATMENT
CIPA001,EG,CIPA001-D-EL2,59,chipD_ch2_Alfus_100uM,MORPHIN,Morphology Instability,0.5678,SCORE,0.5678,0.5678,SCORE,,DERIVED,,ALGORITHM,6,2026-03-22,1,ALFUZOSIN .100 uM,TREATMENT
CIPA001,EG,CIPA001-D-EL2,60,chipD_ch2_Alfus_100uM,EADPCT,EAD Incidence,0.0000,%,0.0000,0.0,%,,DERIVED,,ALGORITHM,6,2026-03-22,1,ALFUZOSIN .100 uM,TREATMENT
CIPA001,EG,CIPA001-D-EL1,101,chipD_ch2_Alfus_10uM,FPD,FPD,516.1794,ms,516.1794,516.1794,ms,,DERIVED,,ALGORITHM,11,2026-03-22,1,ALFUZOSIN .10 uM,TREATMENT
CIPA001,EG,CIPA001-D-EL1,102,chipD_ch2_Alfus_10uM,FPDCF,FPDcF,469.3262,ms,469.3262,469.3262,ms,,DERIVED,,ALGORITHM,11,2026-03-22,1,ALFUZOSIN .10 uM,TREATMENT
CIPA001,EG,CIPA001-D-EL1,103,chipD_ch2_Alfus_10uM,BP,Beat Period,1363.8206,ms,1363.8206,1363.8206,ms,,DERIVED,,ALGORITHM,11,2026-03-22,1,ALFUZOSIN .10 uM,TREATMENT
CIPA001,EG,CIPA001-D-EL1,104,chipD_ch2_Alfus_10uM,SPIKEAM,Spike Amplitude,624.6434,uV,624.6434,624.6434,uV,,DERIVED,,ALGORITHM,11,2026-03-22,1,ALFUZOSIN .10 uM,TREATMENT
CIPA001,EG,CIPA001-D-EL1,105,chipD_ch2_Alfus_10uM,FPDCONF,FPD Confidence,0.8038,SCORE,0.8038,0.8038,SCORE,,DERIVED,,ALGORITHM,11,2026-03-22,1,ALFUZOSIN .10 uM,TREATMENT
CIPA001,EG,CIPA001-D-EL1,106,chipD_ch2_Alfus_10uM,INTVL,Heart Rate,43.9941,beats/min,43.9941,43.9941,beats/min,,DERIVED,,ALGORITHM,11,2026-03-22,1,ALFUZOSIN .10 uM,TREATMENT
CIPA001,EG,CIPA001-D-EL1,107,chipD_ch2_Alfus_10uM,QCGRADE,QC Grade,A,,A,,,,DERIVED,,ALGORITHM,11,2026-03-22,1,ALFUZOSIN .10 uM,TREATMENT
CIPA001,EG,CIPA001-D-EL1,108,chipD_ch2_Alfus_10uM,RSKSCR,Arrhythmia Risk Score,27,SCORE,27,27.0,SCORE,,DERIVED,,ALGORITHM,11,2026-03-22,1,ALFUZOSIN .10 uM,TREATMENT
CIPA001,EG,CIPA001-D-EL1,109,chipD_ch2_Alfus_10uM,MORPHIN,Morphology Instability,0.2100,SCORE,0.2100,0.21,SCORE,,DERIVED,,ALGORITHM,11,2026-03-22,1,ALFUZOSIN .10 uM,TREATMENT
CIPA001,EG,CIPA001-D-EL1,110,chipD_ch2_Alfus_10uM,EADPCT,EAD Incidence,0.7634,%,0.7634,0.7634,%,,DERIVED,,ALGORITHM,11,2026-03-22,1,ALFUZOSIN .10 uM,TREATMENT
CIPA001,EG,CIPA001-D-EL1,111,chipD_ch2_Alfus_1uM,FPD,FPD,485.2287,ms,485.2287,485.2287,ms,,DERIVED,,ALGORITHM,12,2026-03-22,1,ALFUZOSIN .1 uM,TREATMENT
CIPA001,EG,CIPA001-D-EL1,112,chipD_ch2_Alfus_1uM,FPDCF,FPDcF,442.2872,ms,442.2872,442.2872,ms,,DERIVED,,ALGORITHM,12,2026-03-22,1,ALFUZOSIN .1 uM,TREATMENT
CIPA001,EG,CIPA001-D-EL1,113,chipD_ch2_Alfus_1uM,BP,Beat Period,1382.0000,ms,1382.0000,1382.0,ms,,DERIVED,,ALGORITHM,12,2026-03-22,1,ALFUZOSIN .1 uM,TREATMENT
CIPA001,EG,CIPA001-D-EL1,114,chipD_ch2_Alfus_1uM,SPIKEAM,Spike Amplitude,652.2598,uV,652.2598,652.2598,uV,,DERIVED,,ALGORITHM,12,2026-03-22,1,ALFUZOSIN .1 uM,TREATMENT
CIPA001,EG,CIPA001-D-EL1,115,chipD_ch2_Alfus_1uM,FPDCONF,FPD Confidence,0.8610,SCORE,0.8610,0.861,SCORE,,DERIVED,,ALGORITHM,12,2026-03-22,1,ALFUZOSIN .1 uM,TREATMENT
CIPA001,EG,CIPA001-D-EL1,116,chipD_ch2_Alfus_1uM,INTVL,Heart Rate,43.4153,beats/min,43.4153,43.4153,beats/min,,DERIVED,,ALGORITHM,12,2026-03-22,1,ALFUZOSIN .1 uM,TREATMENT
CIPA001,EG,CIPA001-D-EL1,117,chipD_ch2_Alfus_1uM,QCGRADE,QC Grade,B,,B,,,,DERIVED,,ALGORITHM,12,2026-03-22,1,ALFUZOSIN .1 uM,TREATMENT
CIPA001,EG,CIPA001-D-EL1,118,chipD_ch2_Alfus_1uM,RSKSCR,Arrhythmia Risk Score,29,SCORE,29,29.0,SCORE,,DERIVED,,ALGORITHM,12,2026-03-22,1,ALFUZOSIN .1 uM,TREATMENT
CIPA001,EG,CIPA001-D-EL1,119,chipD_ch2_Alfus_1uM,MORPHIN,Morphology Instability,0.1773,SCORE,0.1773,0.1773,SCORE,,DERIVED,,ALGORITHM,12,2026-03-22,1,ALFUZOSIN .1 uM,TREATMENT
CIPA001,EG,CIPA001-D-EL1,120,chipD_ch2_Alfus_1uM,EADPCT,EAD Incidence,0.0000,%,0.0000,0.0,%,,DERIVED,,ALGORITHM,12,2026-03-22,1,ALFUZOSIN .1 uM,TREATMENT
CIPA001,EG,CIPA001-D-EL1,121,chipD_ch2_Alfus_300uM,FPD,FPD,666.2368,ms,666.2368,666.2368,ms,,DERIVED,,ALGORITHM,13,2026-03-22,1,ALFUZOSIN .300 uM,TREATMENT
CIPA001,EG,CIPA001-D-EL1,122,chipD_ch2_Alfus_300uM,FPDCF,FPDcF,547.5231,ms,547.5231,547.5231,ms,,DERIVED,,ALGORITHM,13,2026-03-22,1,ALFUZOSIN .300 uM,TREATMENT
CIPA001,EG,CIPA001-D-EL1,123,chipD_ch2_Alfus_300uM,BP,Beat Period,1890.1223,ms,1890.1223,1890.1223,ms,,DERIVED,,ALGORITHM,13,2026-03-22,1,ALFUZOSIN .300 uM,TREATMENT
CIPA001,EG,CIPA001-D-EL1,124,chipD_ch2_Alfus_300uM,SPIKEAM,Spike Amplitude,348.1260,uV,348.1260,348.126,uV,,DERIVED,,ALGORITHM,13,2026-03-22,1,ALFUZOSIN .300 uM,TREATMENT
CIPA001,EG,CIPA001-D-EL1,125,chipD_ch2_Alfus_300uM,FPDCONF,FPD Confidence,0.7234,SCORE,0.7234,0.7234,SCORE,,DERIVED,,ALGORITHM,13,2026-03-22,1,ALFUZOSIN .300 uM,TREATMENT
CIPA001,EG,CIPA001-D-EL1,126,chipD_ch2_Alfus_300uM,INTVL,Heart Rate,31.7440,beats/min,31.7440,31.744,beats/min,,DERIVED,,ALGORITHM,13,2026-03-22,1,ALFUZOSIN .300 uM,TREATMENT
CIPA001,EG,CIPA001-D-EL1,127,chipD_ch2_Alfus_300uM,QCGRADE,QC Grade,D,,D,,,,DERIVED,,ALGORITHM,13,2026-03-22,1,ALFUZOSIN .300 uM,TREATMENT
CIPA001,EG,CIPA001-D-EL1,128,chipD_ch2_Alfus_300uM,RSKSCR,Arrhythmia Risk Score,33,SCORE,33,33.0,SCORE,,DERIVED,,ALGORITHM,13,2026-03-22,1,ALFUZOSIN .300 uM,TREATMENT
CIPA001,EG,CIPA001-D-EL1,129,chipD_ch2_Alfus_300uM,MORPHIN,Morphology Instability,0.3712,SCORE,0.3712,0.3712,SCORE,,DERIVED,,ALGORITHM,13,2026-03-22,1,ALFUZOSIN .300 uM,TREATMENT
CIPA001,EG,CIPA001-D-EL1,130,chipD_ch2_Alfus_300uM,EADPCT,EAD Incidence,0.0000,%,0.0000,0.0,%,,DERIVED,,ALGORITHM,13,2026-03-22,1,ALFUZOSIN .300 uM,TREATMENT
CIPA001,EG,CIPA001-D-EL1,131,chipD_ch2_Alfus_30uM,FPD,FPD,599.6061,ms,599.6061,599.6061,ms,,DERIVED,,ALGORITHM,14,2026-03-22,1,ALFUZOSIN .30 uM,TREATMENT
CIPA001,EG,CIPA001-D-EL1,132,chipD_ch2_Alfus_30uM,FPDCF,FPDcF,499.2555,ms,499.2555,499.2555,ms,,DERIVED,,ALGORITHM,14,2026-03-22,1,ALFUZOSIN .30 uM,TREATMENT
CIPA001,EG,CIPA001-D-EL1,133,chipD_ch2_Alfus_30uM,BP,Beat Period,1809.3333,ms,1809.3333,1809.3333,ms,,DERIVED,,ALGORITHM,14,2026-03-22,1,ALFUZOSIN .30 uM,TREATMENT
CIPA001,EG,CIPA001-D-EL1,134,chipD_ch2_Alfus_30uM,SPIKEAM,Spike Amplitude,592.3336,uV,592.3336,592.3336,uV,,DERIVED,,ALGORITHM,14,2026-03-22,1,ALFUZOSIN .30 uM,TREATMENT
CIPA001,EG,CIPA001-D-EL1,135,chipD_ch2_Alfus_30uM,FPDCONF,FPD Confidence,0.8085,SCORE,0.8085,0.8085,SCORE,,DERIVED,,ALGORITHM,14,2026-03-22,1,ALFUZOSIN .30 uM,TREATMENT
CIPA001,EG,CIPA001-D-EL1,136,chipD_ch2_Alfus_30uM,INTVL,Heart Rate,33.1614,beats/min,33.1614,33.1614,beats/min,,DERIVED,,ALGORITHM,14,2026-03-22,1,ALFUZOSIN .30 uM,TREATMENT
CIPA001,EG,CIPA001-D-EL1,137,chipD_ch2_Alfus_30uM,QCGRADE,QC Grade,C,,C,,,,DERIVED,,ALGORITHM,14,2026-03-22,1,ALFUZOSIN .30 uM,TREATMENT
CIPA001,EG,CIPA001-D-EL1,138,chipD_ch2_Alfus_30uM,RSKSCR,Arrhythmia Risk Score,34,SCORE,34,34.0,SCORE,,DERIVED,,ALGORITHM,14,2026-03-22,1,ALFUZOSIN .30 uM,TREATMENT
CIPA001,EG,CIPA001-D-EL1,139,chipD_ch2_Alfus_30uM,MORPHIN,Morphology Instability,0.2102,SCORE,0.2102,0.2102,SCORE,,DERIVED,,ALGORITHM,14,2026-03-22,1,ALFUZOSIN .30 uM,TREATMENT
CIPA001,EG,CIPA001-D-EL1,140,chipD_ch2_Alfus_30uM,EADPCT,EAD Incidence,0.0000,%,0.0000,0.0,%,,DERIVED,,ALGORITHM,14,2026-03-22,1,ALFUZOSIN .30 uM,TREATMENT
CIPA001,EG,CIPA001-D-EL2,61,chipD_ch3_CTRL1,FPD,FPD,486.4434,ms,486.4434,486.4434,ms,,DERIVED,Y,ALGORITHM,7,2026-03-22,1,BASELINE,BASELINE
CIPA001,EG,CIPA001-D-EL2,62,chipD_ch3_CTRL1,FPDCF,FPDcF,408.8516,ms,408.8516,408.8516,ms,,DERIVED,Y,ALGORITHM,7,2026-03-22,1,BASELINE,BASELINE
CIPA001,EG,CIPA001-D-EL2,63,chipD_ch3_CTRL1,BP,Beat Period,2238.8396,ms,2238.8396,2238.8396,ms,,DERIVED,Y,ALGORITHM,7,2026-03-22,1,BASELINE,BASELINE
CIPA001,EG,CIPA001-D-EL2,64,chipD_ch3_CTRL1,SPIKEAM,Spike Amplitude,223.4815,uV,223.4815,223.4815,uV,,DERIVED,Y,ALGORITHM,7,2026-03-22,1,BASELINE,BASELINE
CIPA001,EG,CIPA001-D-EL2,65,chipD_ch3_CTRL1,FPDCONF,FPD Confidence,0.7490,SCORE,0.7490,0.749,SCORE,,DERIVED,Y,ALGORITHM,7,2026-03-22,1,BASELINE,BASELINE
CIPA001,EG,CIPA001-D-EL2,66,chipD_ch3_CTRL1,INTVL,Heart Rate,26.7996,beats/min,26.7996,26.7996,beats/min,,DERIVED,Y,ALGORITHM,7,2026-03-22,1,BASELINE,BASELINE
CIPA001,EG,CIPA001-D-EL2,67,chipD_ch3_CTRL1,QCGRADE,QC Grade,D,,D,,,,DERIVED,Y,ALGORITHM,7,2026-03-22,1,BASELINE,BASELINE
CIPA001,EG,CIPA001-D-EL2,68,chipD_ch3_CTRL1,RSKSCR,Arrhythmia Risk Score,29,SCORE,29,29.0,SCORE,,DERIVED,Y,ALGORITHM,7,2026-03-22,1,BASELINE,BASELINE
CIPA001,EG,CIPA001-D-EL2,69,chipD_ch3_CTRL1,MORPHIN,Morphology Instability,0.3520,SCORE,0.3520,0.352,SCORE,,DERIVED,Y,ALGORITHM,7,2026-03-22,1,BASELINE,BASELINE
CIPA001,EG,CIPA001-D-EL2,70,chipD_ch3_CTRL1,EADPCT,EAD Incidence,0.0000,%,0.0000,0.0,%,,DERIVED,Y,ALGORITHM,7,2026-03-22,1,BASELINE,BASELINE
CIPA001,EG,CIPA001-A-EL1,261,chipA_ch1_DOFE_0_3nM_2,FPD,FPD,364.1000,ms,364.1000,364.1,ms,,DERIVED,,ALGORITHM,19,2026-03-22,1,DOFETILIDE .0.3 nM,TREATMENT
CIPA001,EG,CIPA001-A-EL1,262,chipA_ch1_DOFE_0_3nM_2,FPDCF,FPDcF,230.7956,ms,230.7956,230.7956,ms,,DERIVED,,ALGORITHM,19,2026-03-22,1,DOFETILIDE .0.3 nM,TREATMENT
CIPA001,EG,CIPA001-A-EL1,263,chipA_ch1_DOFE_0_3nM_2,BP,Beat Period,3861.9674,ms,3861.9674,3861.9674,ms,,DERIVED,,ALGORITHM,19,2026-03-22,1,DOFETILIDE .0.3 nM,TREATMENT
CIPA001,EG,CIPA001-A-EL1,264,chipA_ch1_DOFE_0_3nM_2,SPIKEAM,Spike Amplitude,74.1634,uV,74.1634,74.1634,uV,,DERIVED,,ALGORITHM,19,2026-03-22,1,DOFETILIDE .0.3 nM,TREATMENT
CIPA001,EG,CIPA001-A-EL1,265,chipA_ch1_DOFE_0_3nM_2,FPDCONF,FPD Confidence,0.5710,SCORE,0.5710,0.571,SCORE,,DERIVED,,ALGORITHM,19,2026-03-22,1,DOFETILIDE .0.3 nM,TREATMENT
CIPA001,EG,CIPA001-A-EL1,266,chipA_ch1_DOFE_0_3nM_2,INTVL,Heart Rate,15.5361,beats/min,15.5361,15.5361,beats/min,,DERIVED,,ALGORITHM,19,2026-03-22,1,DOFETILIDE .0.3 nM,TREATMENT
CIPA001,EG,CIPA001-A-EL1,267,chipA_ch1_DOFE_0_3nM_2,QCGRADE,QC Grade,D,,D,,,,DERIVED,,ALGORITHM,19,2026-03-22,1,DOFETILIDE .0.3 nM,TREATMENT
CIPA001,EG,CIPA001-A-EL1,268,chipA_ch1_DOFE_0_3nM_2,RSKSCR,Arrhythmia Risk Score,30,SCORE,30,30.0,SCORE,,DERIVED,,ALGORITHM,19,2026-03-22,1,DOFETILIDE .0.3 nM,TREATMENT
CIPA001,EG,CIPA001-A-EL1,269,chipA_ch1_DOFE_0_3nM_2,MORPHIN,Morphology Instability,0.2619,SCORE,0.2619,0.2619,SCORE,,DERIVED,,ALGORITHM,19,2026-03-22,1,DOFETILIDE .0.3 nM,TREATMENT
CIPA001,EG,CIPA001-A-EL1,270,chipA_ch1_DOFE_0_3nM_2,EADPCT,EAD Incidence,0.0000,%,0.0000,0.0,%,,DERIVED,,ALGORITHM,19,2026-03-22,1,DOFETILIDE .0.3 nM,TREATMENT
CIPA001,EG,CIPA001-A-EL2,131,chipA_ch1_DOFE_10nM,FPD,FPD,778.3399,ms,778.3399,778.3399,ms,,DERIVED,,ALGORITHM,10,2026-03-22,1,DOFETILIDE .10 nM,TREATMENT
CIPA001,EG,CIPA001-A-EL2,132,chipA_ch1_DOFE_10nM,FPDCF,FPDcF,799.0366,ms,799.0366,799.0366,ms,,DERIVED,,ALGORITHM,10,2026-03-22,1,DOFETILIDE .10 nM,TREATMENT
CIPA001,EG,CIPA001-A-EL2,133,chipA_ch1_DOFE_10nM,BP,Beat Period,999.8111,ms,999.8111,999.8111,ms,,DERIVED,,ALGORITHM,10,2026-03-22,1,DOFETILIDE .10 nM,TREATMENT
CIPA001,EG,CIPA001-A-EL2,134,chipA_ch1_DOFE_10nM,SPIKEAM,Spike Amplitude,97.9004,uV,97.9004,97.9004,uV,,DERIVED,,ALGORITHM,10,2026-03-22,1,DOFETILIDE .10 nM,TREATMENT
CIPA001,EG,CIPA001-A-EL2,135,chipA_ch1_DOFE_10nM,FPDCONF,FPD Confidence,0.7009,SCORE,0.7009,0.7009,SCORE,,DERIVED,,ALGORITHM,10,2026-03-22,1,DOFETILIDE .10 nM,TREATMENT
CIPA001,EG,CIPA001-A-EL2,136,chipA_ch1_DOFE_10nM,INTVL,Heart Rate,60.0113,beats/min,60.0113,60.0113,beats/min,,DERIVED,,ALGORITHM,10,2026-03-22,1,DOFETILIDE .10 nM,TREATMENT
CIPA001,EG,CIPA001-A-EL2,137,chipA_ch1_DOFE_10nM,QCGRADE,QC Grade,C,,C,,,,DERIVED,,ALGORITHM,10,2026-03-22,1,DOFETILIDE .10 nM,TREATMENT
CIPA001,EG,CIPA001-A-EL2,138,chipA_ch1_DOFE_10nM,RSKSCR,Arrhythmia Risk Score,36,SCORE,36,36.0,SCORE,,DERIVED,,ALGORITHM,10,2026-03-22,1,DOFETILIDE .10 nM,TREATMENT
CIPA001,EG,CIPA001-A-EL2,139,chipA_ch1_DOFE_10nM,MORPHIN,Morphology Instability,0.6992,SCORE,0.6992,0.6992,SCORE,,DERIVED,,ALGORITHM,10,2026-03-22,1,DOFETILIDE .10 nM,TREATMENT
CIPA001,EG,CIPA001-A-EL2,140,chipA_ch1_DOFE_10nM,EADPCT,EAD Incidence,0.0000,%,0.0000,0.0,%,,DERIVED,,ALGORITHM,10,2026-03-22,1,DOFETILIDE .10 nM,TREATMENT
CIPA001,EG,CIPA001-A-EL1,271,chipA_ch1_DOFE_1nM,FPD,FPD,494.0857,ms,494.0857,494.0857,ms,,DERIVED,,ALGORITHM,20,2026-03-22,1,DOFETILIDE .1 nM,TREATMENT
CIPA001,EG,CIPA001-A-EL1,272,chipA_ch1_DOFE_1nM,FPDCF,FPDcF,363.3590,ms,363.3590,363.359,ms,,DERIVED,,ALGORITHM,20,2026-03-22,1,DOFETILIDE .1 nM,TREATMENT
CIPA001,EG,CIPA001-A-EL1,273,chipA_ch1_DOFE_1nM,BP,Beat Period,2514.6338,ms,2514.6338,2514.6338,ms,,DERIVED,,ALGORITHM,20,2026-03-22,1,DOFETILIDE .1 nM,TREATMENT
CIPA001,EG,CIPA001-A-EL1,274,chipA_ch1_DOFE_1nM,SPIKEAM,Spike Amplitude,452.6674,uV,452.6674,452.6674,uV,,DERIVED,,ALGORITHM,20,2026-03-22,1,DOFETILIDE .1 nM,TREATMENT
CIPA001,EG,CIPA001-A-EL1,275,chipA_ch1_DOFE_1nM,FPDCONF,FPD Confidence,0.6096,SCORE,0.6096,0.6096,SCORE,,DERIVED,,ALGORITHM,20,2026-03-22,1,DOFETILIDE .1 nM,TREATMENT
CIPA001,EG,CIPA001-A-EL1,276,chipA_ch1_DOFE_1nM,INTVL,Heart Rate,23.8603,beats/min,23.8603,23.8603,beats/min,,DERIVED,,ALGORITHM,20,2026-03-22,1,DOFETILIDE .1 nM,TREATMENT
CIPA001,EG,CIPA001-A-EL1,277,chipA_ch1_DOFE_1nM,QCGRADE,QC Grade,D,,D,,,,DERIVED,,ALGORITHM,20,2026-03-22,1,DOFETILIDE .1 nM,TREATMENT
CIPA001,EG,CIPA001-A-EL1,278,chipA_ch1_DOFE_1nM,RSKSCR,Arrhythmia Risk Score,27,SCORE,27,27.0,SCORE,,DERIVED,,ALGORITHM,20,2026-03-22,1,DOFETILIDE .1 nM,TREATMENT
CIPA001,EG,CIPA001-A-EL1,279,chipA_ch1_DOFE_1nM,MORPHIN,Morphology Instability,0.2653,SCORE,0.2653,0.2653,SCORE,,DERIVED,,ALGORITHM,20,2026-03-22,1,DOFETILIDE .1 nM,TREATMENT
CIPA001,EG,CIPA001-A-EL1,280,chipA_ch1_DOFE_1nM,EADPCT,EAD Incidence,0.0000,%,0.0000,0.0,%,,DERIVED,,ALGORITHM,20,2026-03-22,1,DOFETILIDE .1 nM,TREATMENT
CIPA001,EG,CIPA001-A-EL2,141,chipA_ch1_DOFE_2nM,FPD,FPD,668.7574,ms,668.7574,668.7574,ms,,DERIVED,,ALGORITHM,11,2026-03-22,1,DOFETILIDE .2 nM,TREATMENT
CIPA001,EG,CIPA001-A-EL2,142,chipA_ch1_DOFE_2nM,FPDCF,FPDcF,787.2736,ms,787.2736,787.2736,ms,,DERIVED,,ALGORITHM,11,2026-03-22,1,DOFETILIDE .2 nM,TREATMENT
CIPA001,EG,CIPA001-A-EL2,143,chipA_ch1_DOFE_2nM,BP,Beat Period,658.7253,ms,658.7253,658.7253,ms,,DERIVED,,ALGORITHM,11,2026-03-22,1,DOFETILIDE .2 nM,TREATMENT
CIPA001,EG,CIPA001-A-EL2,144,chipA_ch1_DOFE_2nM,SPIKEAM,Spike Amplitude,91.9049,uV,91.9049,91.9049,uV,,DERIVED,,ALGORITHM,11,2026-03-22,1,DOFETILIDE .2 nM,TREATMENT
CIPA001,EG,CIPA001-A-EL2,145,chipA_ch1_DOFE_2nM,FPDCONF,FPD Confidence,0.6377,SCORE,0.6377,0.6377,SCORE,,DERIVED,,ALGORITHM,11,2026-03-22,1,DOFETILIDE .2 nM,TREATMENT
CIPA001,EG,CIPA001-A-EL2,146,chipA_ch1_DOFE_2nM,INTVL,Heart Rate,91.0850,beats/min,91.0850,91.085,beats/min,,DERIVED,,ALGORITHM,11,2026-03-22,1,DOFETILIDE .2 nM,TREATMENT
CIPA001,EG,CIPA001-A-EL2,147,chipA_ch1_DOFE_2nM,QCGRADE,QC Grade,B,,B,,,,DERIVED,,ALGORITHM,11,2026-03-22,1,DOFETILIDE .2 nM,TREATMENT
CIPA001,EG,CIPA001-A-EL2,148,chipA_ch1_DOFE_2nM,RSKSCR,Arrhythmia Risk Score,33,SCORE,33,33.0,SCORE,,DERIVED,,ALGORITHM,11,2026-03-22,1,DOFETILIDE .2 nM,TREATMENT
CIPA001,EG,CIPA001-A-EL2,149,chipA_ch1_DOFE_2nM,MORPHIN,Morphology Instability,0.5551,SCORE,0.5551,0.5551,SCORE,,DERIVED,,ALGORITHM,11,2026-03-22,1,DOFETILIDE .2 nM,TREATMENT
CIPA001,EG,CIPA001-A-EL2,150,chipA_ch1_DOFE_2nM,EADPCT,EAD Incidence,0.0000,%,0.0000,0.0,%,,DERIVED,,ALGORITHM,11,2026-03-22,1,DOFETILIDE .2 nM,TREATMENT
CIPA001,EG,CIPA001-A-EL2,151,chipA_ch1_DOFE_3nM,FPD,FPD,818.1941,ms,818.1941,818.1941,ms,,DERIVED,,ALGORITHM,12,2026-03-22,1,DOFETILIDE .3 nM,TREATMENT
CIPA001,EG,CIPA001-A-EL2,152,chipA_ch1_DOFE_3nM,FPDCF,FPDcF,883.8394,ms,883.8394,883.8394,ms,,DERIVED,,ALGORITHM,12,2026-03-22,1,DOFETILIDE .3 nM,TREATMENT
CIPA001,EG,CIPA001-A-EL2,153,chipA_ch1_DOFE_3nM,BP,Beat Period,815.7568,ms,815.7568,815.7568,ms,,DERIVED,,ALGORITHM,12,2026-03-22,1,DOFETILIDE .3 nM,TREATMENT
CIPA001,EG,CIPA001-A-EL2,154,chipA_ch1_DOFE_3nM,SPIKEAM,Spike Amplitude,89.6877,uV,89.6877,89.6877,uV,,DERIVED,,ALGORITHM,12,2026-03-22,1,DOFETILIDE .3 nM,TREATMENT
CIPA001,EG,CIPA001-A-EL2,155,chipA_ch1_DOFE_3nM,FPDCONF,FPD Confidence,0.7408,SCORE,0.7408,0.7408,SCORE,,DERIVED,,ALGORITHM,12,2026-03-22,1,DOFETILIDE .3 nM,TREATMENT
CIPA001,EG,CIPA001-A-EL2,156,chipA_ch1_DOFE_3nM,INTVL,Heart Rate,73.5513,beats/min,73.5513,73.5513,beats/min,,DERIVED,,ALGORITHM,12,2026-03-22,1,DOFETILIDE .3 nM,TREATMENT
CIPA001,EG,CIPA001-A-EL2,157,chipA_ch1_DOFE_3nM,QCGRADE,QC Grade,C,,C,,,,DERIVED,,ALGORITHM,12,2026-03-22,1,DOFETILIDE .3 nM,TREATMENT
CIPA001,EG,CIPA001-A-EL2,158,chipA_ch1_DOFE_3nM,RSKSCR,Arrhythmia Risk Score,37,SCORE,37,37.0,SCORE,,DERIVED,,ALGORITHM,12,2026-03-22,1,DOFETILIDE .3 nM,TREATMENT
CIPA001,EG,CIPA001-A-EL2,159,chipA_ch1_DOFE_3nM,MORPHIN,Morphology Instability,0.6699,SCORE,0.6699,0.6699,SCORE,,DERIVED,,ALGORITHM,12,2026-03-22,1,DOFETILIDE .3 nM,TREATMENT
CIPA001,EG,CIPA001-A-EL2,160,chipA_ch1_DOFE_3nM,EADPCT,EAD Incidence,0.0000,%,0.0000,0.0,%,,DERIVED,,ALGORITHM,12,2026-03-22,1,DOFETILIDE .3 nM,TREATMENT
CIPA001,EG,CIPA001-A-EL1,281,chipA_ch1_DOFE_6nM,FPD,FPD,314.0679,ms,314.0679,314.0679,ms,,DERIVED,,ALGORITHM,21,2026-03-22,1,DOFETILIDE .6 nM,TREATMENT
CIPA001,EG,CIPA001-A-EL1,282,chipA_ch1_DOFE_6nM,FPDCF,FPDcF,248.6028,ms,248.6028,248.6028,ms,,DERIVED,,ALGORITHM,21,2026-03-22,1,DOFETILIDE .6 nM,TREATMENT
CIPA001,EG,CIPA001-A-EL1,283,chipA_ch1_DOFE_6nM,BP,Beat Period,2201.3086,ms,2201.3086,2201.3086,ms,,DERIVED,,ALGORITHM,21,2026-03-22,1,DOFETILIDE .6 nM,TREATMENT
CIPA001,EG,CIPA001-A-EL1,284,chipA_ch1_DOFE_6nM,SPIKEAM,Spike Amplitude,225.4571,uV,225.4571,225.4571,uV,,DERIVED,,ALGORITHM,21,2026-03-22,1,DOFETILIDE .6 nM,TREATMENT
CIPA001,EG,CIPA001-A-EL1,285,chipA_ch1_DOFE_6nM,FPDCONF,FPD Confidence,0.5412,SCORE,0.5412,0.5412,SCORE,,DERIVED,,ALGORITHM,21,2026-03-22,1,DOFETILIDE .6 nM,TREATMENT
CIPA001,EG,CIPA001-A-EL1,286,chipA_ch1_DOFE_6nM,INTVL,Heart Rate,27.2565,beats/min,27.2565,27.2565,beats/min,,DERIVED,,ALGORITHM,21,2026-03-22,1,DOFETILIDE .6 nM,TREATMENT
CIPA001,EG,CIPA001-A-EL1,287,chipA_ch1_DOFE_6nM,QCGRADE,QC Grade,D,,D,,,,DERIVED,,ALGORITHM,21,2026-03-22,1,DOFETILIDE .6 nM,TREATMENT
CIPA001,EG,CIPA001-A-EL1,288,chipA_ch1_DOFE_6nM,RSKSCR,Arrhythmia Risk Score,37,SCORE,37,37.0,SCORE,,DERIVED,,ALGORITHM,21,2026-03-22,1,DOFETILIDE .6 nM,TREATMENT
CIPA001,EG,CIPA001-A-EL1,289,chipA_ch1_DOFE_6nM,MORPHIN,Morphology Instability,0.4510,SCORE,0.4510,0.451,SCORE,,DERIVED,,ALGORITHM,21,2026-03-22,1,DOFETILIDE .6 nM,TREATMENT
CIPA001,EG,CIPA001-A-EL1,290,chipA_ch1_DOFE_6nM,EADPCT,EAD Incidence,0.0000,%,0.0000,0.0,%,,DERIVED,,ALGORITHM,21,2026-03-22,1,DOFETILIDE .6 nM,TREATMENT
CIPA001,EG,CIPA001-A-EL1,291,chipA_ch1_baseline,FPD,FPD,806.1386,ms,806.1386,806.1386,ms,,DERIVED,Y,ALGORITHM,22,2026-03-22,1,BASELINE,BASELINE
CIPA001,EG,CIPA001-A-EL1,292,chipA_ch1_baseline,FPDCF,FPDcF,648.8841,ms,648.8841,648.8841,ms,,DERIVED,Y,ALGORITHM,22,2026-03-22,1,BASELINE,BASELINE
CIPA001,EG,CIPA001-A-EL1,293,chipA_ch1_baseline,BP,Beat Period,2163.0904,ms,2163.0904,2163.0904,ms,,DERIVED,Y,ALGORITHM,22,2026-03-22,1,BASELINE,BASELINE
CIPA001,EG,CIPA001-A-EL1,294,chipA_ch1_baseline,SPIKEAM,Spike Amplitude,445.8140,uV,445.8140,445.814,uV,,DERIVED,Y,ALGORITHM,22,2026-03-22,1,BASELINE,BASELINE
CIPA001,EG,CIPA001-A-EL1,295,chipA_ch1_baseline,FPDCONF,FPD Confidence,0.8915,SCORE,0.8915,0.8915,SCORE,,DERIVED,Y,ALGORITHM,22,2026-03-22,1,BASELINE,BASELINE
CIPA001,EG,CIPA001-A-EL1,296,chipA_ch1_baseline,INTVL,Heart Rate,27.7381,beats/min,27.7381,27.7381,beats/min,,DERIVED,Y,ALGORITHM,22,2026-03-22,1,BASELINE,BASELINE
CIPA001,EG,CIPA001-A-EL1,297,chipA_ch1_baseline,QCGRADE,QC Grade,D,,D,,,,DERIVED,Y,ALGORITHM,22,2026-03-22,1,BASELINE,BASELINE
CIPA001,EG,CIPA001-A-EL1,298,chipA_ch1_baseline,RSKSCR,Arrhythmia Risk Score,0,SCORE,0,0.0,SCORE,,DERIVED,Y,ALGORITHM,22,2026-03-22,1,BASELINE,BASELINE
CIPA001,EG,CIPA001-A-EL1,299,chipA_ch1_baseline,MORPHIN,Morphology Instability,0.2666,SCORE,0.2666,0.2666,SCORE,,DERIVED,Y,ALGORITHM,22,2026-03-22,1,BASELINE,BASELINE
CIPA001,EG,CIPA001-A-EL1,300,chipA_ch1_baseline,EADPCT,EAD Incidence,0.0000,%,0.0000,0.0,%,,DERIVED,Y,ALGORITHM,22,2026-03-22,1,BASELINE,BASELINE
CIPA001,EG,CIPA001-A-EL1,301,chipA_ch2_MEXI_0_1uM,FPD,FPD,812.5426,ms,812.5426,812.5426,ms,,DERIVED,,ALGORITHM,23,2026-03-22,1,MEXILETINE .0.1 uM,TREATMENT
CIPA001,EG,CIPA001-A-EL1,302,chipA_ch2_MEXI_0_1uM,FPDCF,FPDcF,663.0882,ms,663.0882,663.0882,ms,,DERIVED,,ALGORITHM,23,2026-03-22,1,MEXILETINE .0.1 uM,TREATMENT
CIPA001,EG,CIPA001-A-EL1,303,chipA_ch2_MEXI_0_1uM,BP,Beat Period,1897.8989,ms,1897.8989,1897.8989,ms,,DERIVED,,ALGORITHM,23,2026-03-22,1,MEXILETINE .0.1 uM,TREATMENT
CIPA001,EG,CIPA001-A-EL1,304,chipA_ch2_MEXI_0_1uM,SPIKEAM,Spike Amplitude,797.6925,uV,797.6925,797.6925,uV,,DERIVED,,ALGORITHM,23,2026-03-22,1,MEXILETINE .0.1 uM,TREATMENT
CIPA001,EG,CIPA001-A-EL1,305,chipA_ch2_MEXI_0_1uM,FPDCONF,FPD Confidence,0.7747,SCORE,0.7747,0.7747,SCORE,,DERIVED,,ALGORITHM,23,2026-03-22,1,MEXILETINE .0.1 uM,TREATMENT
CIPA001,EG,CIPA001-A-EL1,306,chipA_ch2_MEXI_0_1uM,INTVL,Heart Rate,31.6139,beats/min,31.6139,31.6139,beats/min,,DERIVED,,ALGORITHM,23,2026-03-22,1,MEXILETINE .0.1 uM,TREATMENT
CIPA001,EG,CIPA001-A-EL1,307,chipA_ch2_MEXI_0_1uM,QCGRADE,QC Grade,D,,D,,,,DERIVED,,ALGORITHM,23,2026-03-22,1,MEXILETINE .0.1 uM,TREATMENT
CIPA001,EG,CIPA001-A-EL1,308,chipA_ch2_MEXI_0_1uM,FPDCFPC,FPDcF Pct Change,11.9589,%,11.9589,11.9589,%,,DERIVED,,ALGORITHM,23,2026-03-22,1,MEXILETINE .0.1 uM,TREATMENT
CIPA001,EG,CIPA001-A-EL1,309,chipA_ch2_MEXI_0_1uM,BPPCT,Beat Period Pct Change,-14.5733,%,-14.5733,-14.5733,%,,DERIVED,,ALGORITHM,23,2026-03-22,1,MEXILETINE .0.1 uM,TREATMENT
CIPA001,EG,CIPA001-A-EL1,310,chipA_ch2_MEXI_0_1uM,AMPPCT,Amplitude Pct Change,-6.4686,%,-6.4686,-6.4686,%,,DERIVED,,ALGORITHM,23,2026-03-22,1,MEXILETINE .0.1 uM,TREATMENT
CIPA001,EG,CIPA001-A-EL1,311,chipA_ch2_MEXI_0_1uM,TDPSCR,TdP Risk Score,1,SCORE,1,1.0,SCORE,,DERIVED,,ALGORITHM,23,2026-03-22,1,MEXILETINE .0.1 uM,TREATMENT
CIPA001,EG,CIPA001-A-EL1,312,chipA_ch2_MEXI_0_1uM,SPECCHG,Spectral Change,0.3563,SCORE,0.3563,0.3563,SCORE,,DERIVED,,ALGORITHM,23,2026-03-22,1,MEXILETINE .0.1 uM,TREATMENT
CIPA001,EG,CIPA001-A-EL1,313,chipA_ch2_MEXI_0_1uM,RSKSCR,Arrhythmia Risk Score,36,SCORE,36,36.0,SCORE,,DERIVED,,ALGORITHM,23,2026-03-22,1,MEXILETINE .0.1 uM,TREATMENT
CIPA001,EG,CIPA001-A-EL1,314,chipA_ch2_MEXI_0_1uM,MORPHIN,Morphology Instability,0.2410,SCORE,0.2410,0.241,SCORE,,DERIVED,,ALGORITHM,23,2026-03-22,1,MEXILETINE .0.1 uM,TREATMENT
CIPA001,EG,CIPA001-A-EL1,315,chipA_ch2_MEXI_0_1uM,EADPCT,EAD Incidence,0.0000,%,0.0000,0.0,%,,DERIVED,,ALGORITHM,23,2026-03-22,1,MEXILETINE .0.1 uM,TREATMENT
CIPA001,EG,CIPA001-A-EL1,316,chipA_ch2_MEXI_100uM,FPD,FPD,844.0642,ms,844.0642,844.0642,ms,,DERIVED,,ALGORITHM,24,2026-03-22,1,MEXILETINE .100 uM,TREATMENT
CIPA001,EG,CIPA001-A-EL1,317,chipA_ch2_MEXI_100uM,FPDCF,FPDcF,821.7933,ms,821.7933,821.7933,ms,,DERIVED,,ALGORITHM,24,2026-03-22,1,MEXILETINE .100 uM,TREATMENT
CIPA001,EG,CIPA001-A-EL1,318,chipA_ch2_MEXI_100uM,BP,Beat Period,1209.2095,ms,1209.2095,1209.2095,ms,,DERIVED,,ALGORITHM,24,2026-03-22,1,MEXILETINE .100 uM,TREATMENT
CIPA001,EG,CIPA001-A-EL1,319,chipA_ch2_MEXI_100uM,SPIKEAM,Spike Amplitude,285.0437,uV,285.0437,285.0437,uV,,DERIVED,,ALGORITHM,24,2026-03-22,1,MEXILETINE .100 uM,TREATMENT
CIPA001,EG,CIPA001-A-EL1,320,chipA_ch2_MEXI_100uM,FPDCONF,FPD Confidence,0.8905,SCORE,0.8905,0.8905,SCORE,,DERIVED,,ALGORITHM,24,2026-03-22,1,MEXILETINE .100 uM,TREATMENT
CIPA001,EG,CIPA001-A-EL1,321,chipA_ch2_MEXI_100uM,INTVL,Heart Rate,49.6192,beats/min,49.6192,49.6192,beats/min,,DERIVED,,ALGORITHM,24,2026-03-22,1,MEXILETINE .100 uM,TREATMENT
CIPA001,EG,CIPA001-A-EL1,322,chipA_ch2_MEXI_100uM,QCGRADE,QC Grade,C,,C,,,,DERIVED,,ALGORITHM,24,2026-03-22,1,MEXILETINE .100 uM,TREATMENT
CIPA001,EG,CIPA001-A-EL1,323,chipA_ch2_MEXI_100uM,FPDCFPC,FPDcF Pct Change,38.7554,%,38.7554,38.7554,%,,DERIVED,,ALGORITHM,24,2026-03-22,1,MEXILETINE .100 uM,TREATMENT
CIPA001,EG,CIPA001-A-EL1,324,chipA_ch2_MEXI_100uM,BPPCT,Beat Period Pct Change,-45.5720,%,-45.5720,-45.572,%,,DERIVED,,ALGORITHM,24,2026-03-22,1,MEXILETINE .100 uM,TREATMENT
CIPA001,EG,CIPA001-A-EL1,325,chipA_ch2_MEXI_100uM,AMPPCT,Amplitude Pct Change,-66.5779,%,-66.5779,-66.5779,%,,DERIVED,,ALGORITHM,24,2026-03-22,1,MEXILETINE .100 uM,TREATMENT
CIPA001,EG,CIPA001-A-EL1,326,chipA_ch2_MEXI_100uM,TDPSCR,TdP Risk Score,3,SCORE,3,3.0,SCORE,,DERIVED,,ALGORITHM,24,2026-03-22,1,MEXILETINE .100 uM,TREATMENT
CIPA001,EG,CIPA001-A-EL1,327,chipA_ch2_MEXI_100uM,SPECCHG,Spectral Change,0.4587,SCORE,0.4587,0.4587,SCORE,,DERIVED,,ALGORITHM,24,2026-03-22,1,MEXILETINE .100 uM,TREATMENT
CIPA001,EG,CIPA001-A-EL1,328,chipA_ch2_MEXI_100uM,RSKSCR,Arrhythmia Risk Score,32,SCORE,32,32.0,SCORE,,DERIVED,,ALGORITHM,24,2026-03-22,1,MEXILETINE .100 uM,TREATMENT
CIPA001,EG,CIPA001-A-EL1,329,chipA_ch2_MEXI_100uM,MORPHIN,Morphology Instability,0.3100,SCORE,0.3100,0.31,SCORE,,DERIVED,,ALGORITHM,24,2026-03-22,1,MEXILETINE .100 uM,TREATMENT
CIPA001,EG,CIPA001-A-EL1,330,chipA_ch2_MEXI_100uM,EADPCT,EAD Incidence,0.0000,%,0.0000,0.0,%,,DERIVED,,ALGORITHM,24,2026-03-22,1,MEXILETINE .100 uM,TREATMENT
CIPA001,EG,CIPA001-A-EL1,331,chipA_ch2_MEXI_10uM,FPD,FPD,776.6261,ms,776.6261,776.6261,ms,,DERIVED,,ALGORITHM,25,2026-03-22,1,MEXILETINE .10 uM,TREATMENT
CIPA001,EG,CIPA001-A-EL1,332,chipA_ch2_MEXI_10uM,FPDCF,FPDcF,673.7899,ms,673.7899,673.7899,ms,,DERIVED,,ALGORITHM,25,2026-03-22,1,MEXILETINE .10 uM,TREATMENT
CIPA001,EG,CIPA001-A-EL1,333,chipA_ch2_MEXI_10uM,BP,Beat Period,1553.6447,ms,1553.6447,1553.6447,ms,,DERIVED,,ALGORITHM,25,2026-03-22,1,MEXILETINE .10 uM,TREATMENT
CIPA001,EG,CIPA001-A-EL1,334,chipA_ch2_MEXI_10uM,SPIKEAM,Spike Amplitude,572.9256,uV,572.9256,572.9256,uV,,DERIVED,,ALGORITHM,25,2026-03-22,1,MEXILETINE .10 uM,TREATMENT
CIPA001,EG,CIPA001-A-EL1,335,chipA_ch2_MEXI_10uM,FPDCONF,FPD Confidence,0.8281,SCORE,0.8281,0.8281,SCORE,,DERIVED,,ALGORITHM,25,2026-03-22,1,MEXILETINE .10 uM,TREATMENT
CIPA001,EG,CIPA001-A-EL1,336,chipA_ch2_MEXI_10uM,INTVL,Heart Rate,38.6189,beats/min,38.6189,38.6189,beats/min,,DERIVED,,ALGORITHM,25,2026-03-22,1,MEXILETINE .10 uM,TREATMENT
CIPA001,EG,CIPA001-A-EL1,337,chipA_ch2_MEXI_10uM,QCGRADE,QC Grade,D,,D,,,,DERIVED,,ALGORITHM,25,2026-03-22,1,MEXILETINE .10 uM,TREATMENT
CIPA001,EG,CIPA001-A-EL1,338,chipA_ch2_MEXI_10uM,FPDCFPC,FPDcF Pct Change,13.7658,%,13.7658,13.7658,%,,DERIVED,,ALGORITHM,25,2026-03-22,1,MEXILETINE .10 uM,TREATMENT
CIPA001,EG,CIPA001-A-EL1,339,chipA_ch2_MEXI_10uM,BPPCT,Beat Period Pct Change,-30.0686,%,-30.0686,-30.0686,%,,DERIVED,,ALGORITHM,25,2026-03-22,1,MEXILETINE .10 uM,TREATMENT
CIPA001,EG,CIPA001-A-EL1,340,chipA_ch2_MEXI_10uM,AMPPCT,Amplitude Pct Change,-32.8231,%,-32.8231,-32.8231,%,,DERIVED,,ALGORITHM,25,2026-03-22,1,MEXILETINE .10 uM,TREATMENT
CIPA001,EG,CIPA001-A-EL1,341,chipA_ch2_MEXI_10uM,TDPSCR,TdP Risk Score,1,SCORE,1,1.0,SCORE,,DERIVED,,ALGORITHM,25,2026-03-22,1,MEXILETINE .10 uM,TREATMENT
CIPA001,EG,CIPA001-A-EL1,342,chipA_ch2_MEXI_10uM,SPECCHG,Spectral Change,0.1895,SCORE,0.1895,0.1895,SCORE,,DERIVED,,ALGORITHM,25,2026-03-22,1,MEXILETINE .10 uM,TREATMENT
CIPA001,EG,CIPA001-A-EL1,343,chipA_ch2_MEXI_10uM,RSKSCR,Arrhythmia Risk Score,22,SCORE,22,22.0,SCORE,,DERIVED,,ALGORITHM,25,2026-03-22,1,MEXILETINE .10 uM,TREATMENT
CIPA001,EG,CIPA001-A-EL1,344,chipA_ch2_MEXI_10uM,MORPHIN,Morphology Instability,0.2394,SCORE,0.2394,0.2394,SCORE,,DERIVED,,ALGORITHM,25,2026-03-22,1,MEXILETINE .10 uM,TREATMENT
CIPA001,EG,CIPA001-A-EL1,345,chipA_ch2_MEXI_10uM,EADPCT,EAD Incidence,0.0000,%,0.0000,0.0,%,,DERIVED,,ALGORITHM,25,2026-03-22,1,MEXILETINE .10 uM,TREATMENT
CIPA001,EG,CIPA001-A-EL2,161,chipA_ch2_MEXI_1uM,FPD,FPD,743.9500,ms,743.9500,743.95,ms,,DERIVED,,ALGORITHM,13,2026-03-22,1,MEXILETINE .1 uM,TREATMENT
CIPA001,EG,CIPA001-A-EL2,162,chipA_ch2_MEXI_1uM,FPDCF,FPDcF,756.3735,ms,756.3735,756.3735,ms,,DERIVED,,ALGORITHM,13,2026-03-22,1,MEXILETINE .1 uM,TREATMENT
CIPA001,EG,CIPA001-A-EL2,163,chipA_ch2_MEXI_1uM,BP,Beat Period,994.4167,ms,994.4167,994.4167,ms,,DERIVED,,ALGORITHM,13,2026-03-22,1,MEXILETINE .1 uM,TREATMENT
CIPA001,EG,CIPA001-A-EL2,164,chipA_ch2_MEXI_1uM,SPIKEAM,Spike Amplitude,122.3975,uV,122.3975,122.3975,uV,,DERIVED,,ALGORITHM,13,2026-03-22,1,MEXILETINE .1 uM,TREATMENT
CIPA001,EG,CIPA001-A-EL2,165,chipA_ch2_MEXI_1uM,FPDCONF,FPD Confidence,0.7937,SCORE,0.7937,0.7937,SCORE,,DERIVED,,ALGORITHM,13,2026-03-22,1,MEXILETINE .1 uM,TREATMENT
CIPA001,EG,CIPA001-A-EL2,166,chipA_ch2_MEXI_1uM,INTVL,Heart Rate,60.3369,beats/min,60.3369,60.3369,beats/min,,DERIVED,,ALGORITHM,13,2026-03-22,1,MEXILETINE .1 uM,TREATMENT
CIPA001,EG,CIPA001-A-EL2,167,chipA_ch2_MEXI_1uM,QCGRADE,QC Grade,B,,B,,,,DERIVED,,ALGORITHM,13,2026-03-22,1,MEXILETINE .1 uM,TREATMENT
CIPA001,EG,CIPA001-A-EL2,168,chipA_ch2_MEXI_1uM,FPDCFPC,FPDcF Pct Change,27.7096,%,27.7096,27.7096,%,,DERIVED,,ALGORITHM,13,2026-03-22,1,MEXILETINE .1 uM,TREATMENT
CIPA001,EG,CIPA001-A-EL2,169,chipA_ch2_MEXI_1uM,BPPCT,Beat Period Pct Change,-55.2401,%,-55.2401,-55.2401,%,,DERIVED,,ALGORITHM,13,2026-03-22,1,MEXILETINE .1 uM,TREATMENT
CIPA001,EG,CIPA001-A-EL2,170,chipA_ch2_MEXI_1uM,AMPPCT,Amplitude Pct Change,-85.6486,%,-85.6486,-85.6486,%,,DERIVED,,ALGORITHM,13,2026-03-22,1,MEXILETINE .1 uM,TREATMENT
CIPA001,EG,CIPA001-A-EL2,171,chipA_ch2_MEXI_1uM,TDPSCR,TdP Risk Score,3,SCORE,3,3.0,SCORE,,DERIVED,,ALGORITHM,13,2026-03-22,1,MEXILETINE .1 uM,TREATMENT
CIPA001,EG,CIPA001-A-EL2,172,chipA_ch2_MEXI_1uM,SPECCHG,Spectral Change,0.4581,SCORE,0.4581,0.4581,SCORE,,DERIVED,,ALGORITHM,13,2026-03-22,1,MEXILETINE .1 uM,TREATMENT
CIPA001,EG,CIPA001-A-EL2,173,chipA_ch2_MEXI_1uM,RSKSCR,Arrhythmia Risk Score,27,SCORE,27,27.0,SCORE,,DERIVED,,ALGORITHM,13,2026-03-22,1,MEXILETINE .1 uM,TREATMENT
CIPA001,EG,CIPA001-A-EL2,174,chipA_ch2_MEXI_1uM,MORPHIN,Morphology Instability,0.4161,SCORE,0.4161,0.4161,SCORE,,DERIVED,,ALGORITHM,13,2026-03-22,1,MEXILETINE .1 uM,TREATMENT
CIPA001,EG,CIPA001-A-EL2,175,chipA_ch2_MEXI_1uM,EADPCT,EAD Incidence,0.0000,%,0.0000,0.0,%,,DERIVED,,ALGORITHM,13,2026-03-22,1,MEXILETINE .1 uM,TREATMENT
CIPA001,EG,CIPA001-A-EL1,346,chipA_ch2_MEXI_2_5uM,FPD,FPD,699.5148,ms,699.5148,699.5148,ms,,DERIVED,,ALGORITHM,26,2026-03-22,1,MEXILETINE .2.5 uM,TREATMENT
CIPA001,EG,CIPA001-A-EL1,347,chipA_ch2_MEXI_2_5uM,FPDCF,FPDcF,638.7949,ms,638.7949,638.7949,ms,,DERIVED,,ALGORITHM,26,2026-03-22,1,MEXILETINE .2.5 uM,TREATMENT
CIPA001,EG,CIPA001-A-EL1,348,chipA_ch2_MEXI_2_5uM,BP,Beat Period,1320.8272,ms,1320.8272,1320.8272,ms,,DERIVED,,ALGORITHM,26,2026-03-22,1,MEXILETINE .2.5 uM,TREATMENT
CIPA001,EG,CIPA001-A-EL1,349,chipA_ch2_MEXI_2_5uM,SPIKEAM,Spike Amplitude,626.4645,uV,626.4645,626.4645,uV,,DERIVED,,ALGORITHM,26,2026-03-22,1,MEXILETINE .2.5 uM,TREATMENT
CIPA001,EG,CIPA001-A-EL1,350,chipA_ch2_MEXI_2_5uM,FPDCONF,FPD Confidence,0.8169,SCORE,0.8169,0.8169,SCORE,,DERIVED,,ALGORITHM,26,2026-03-22,1,MEXILETINE .2.5 uM,TREATMENT
CIPA001,EG,CIPA001-A-EL1,351,chipA_ch2_MEXI_2_5uM,INTVL,Heart Rate,45.4261,beats/min,45.4261,45.4261,beats/min,,DERIVED,,ALGORITHM,26,2026-03-22,1,MEXILETINE .2.5 uM,TREATMENT
CIPA001,EG,CIPA001-A-EL1,352,chipA_ch2_MEXI_2_5uM,QCGRADE,QC Grade,D,,D,,,,DERIVED,,ALGORITHM,26,2026-03-22,1,MEXILETINE .2.5 uM,TREATMENT
CIPA001,EG,CIPA001-A-EL1,353,chipA_ch2_MEXI_2_5uM,FPDCFPC,FPDcF Pct Change,7.8571,%,7.8571,7.8571,%,,DERIVED,,ALGORITHM,26,2026-03-22,1,MEXILETINE .2.5 uM,TREATMENT
CIPA001,EG,CIPA001-A-EL1,354,chipA_ch2_MEXI_2_5uM,BPPCT,Beat Period Pct Change,-40.5480,%,-40.5480,-40.548,%,,DERIVED,,ALGORITHM,26,2026-03-22,1,MEXILETINE .2.5 uM,TREATMENT
CIPA001,EG,CIPA001-A-EL1,355,chipA_ch2_MEXI_2_5uM,AMPPCT,Amplitude Pct Change,-26.5455,%,-26.5455,-26.5455,%,,DERIVED,,ALGORITHM,26,2026-03-22,1,MEXILETINE .2.5 uM,TREATMENT
CIPA001,EG,CIPA001-A-EL1,356,chipA_ch2_MEXI_2_5uM,TDPSCR,TdP Risk Score,0,SCORE,0,0.0,SCORE,,DERIVED,,ALGORITHM,26,2026-03-22,1,MEXILETINE .2.5 uM,TREATMENT
CIPA001,EG,CIPA001-A-EL1,357,chipA_ch2_MEXI_2_5uM,SPECCHG,Spectral Change,0.3505,SCORE,0.3505,0.3505,SCORE,,DERIVED,,ALGORITHM,26,2026-03-22,1,MEXILETINE .2.5 uM,TREATMENT
CIPA001,EG,CIPA001-A-EL1,358,chipA_ch2_MEXI_2_5uM,RSKSCR,Arrhythmia Risk Score,24,SCORE,24,24.0,SCORE,,DERIVED,,ALGORITHM,26,2026-03-22,1,MEXILETINE .2.5 uM,TREATMENT
CIPA001,EG,CIPA001-A-EL1,359,chipA_ch2_MEXI_2_5uM,MORPHIN,Morphology Instability,0.2891,SCORE,0.2891,0.2891,SCORE,,DERIVED,,ALGORITHM,26,2026-03-22,1,MEXILETINE .2.5 uM,TREATMENT
CIPA001,EG,CIPA001-A-EL1,360,chipA_ch2_MEXI_2_5uM,EADPCT,EAD Incidence,0.0000,%,0.0000,0.0,%,,DERIVED,,ALGORITHM,26,2026-03-22,1,MEXILETINE .2.5 uM,TREATMENT
CIPA001,EG,CIPA001-A-EL1,361,chipA_ch2_MEXI_50uM,FPD,FPD,748.6859,ms,748.6859,748.6859,ms,,DERIVED,,ALGORITHM,27,2026-03-22,1,MEXILETINE .50 uM,TREATMENT
CIPA001,EG,CIPA001-A-EL1,362,chipA_ch2_MEXI_50uM,FPDCF,FPDcF,803.6012,ms,803.6012,803.6012,ms,,DERIVED,,ALGORITHM,27,2026-03-22,1,MEXILETINE .50 uM,TREATMENT
CIPA001,EG,CIPA001-A-EL1,363,chipA_ch2_MEXI_50uM,BP,Beat Period,934.5288,ms,934.5288,934.5288,ms,,DERIVED,,ALGORITHM,27,2026-03-22,1,MEXILETINE .50 uM,TREATMENT
CIPA001,EG,CIPA001-A-EL1,364,chipA_ch2_MEXI_50uM,SPIKEAM,Spike Amplitude,168.0293,uV,168.0293,168.0293,uV,,DERIVED,,ALGORITHM,27,2026-03-22,1,MEXILETINE .50 uM,TREATMENT
CIPA001,EG,CIPA001-A-EL1,365,chipA_ch2_MEXI_50uM,FPDCONF,FPD Confidence,0.8410,SCORE,0.8410,0.841,SCORE,,DERIVED,,ALGORITHM,27,2026-03-22,1,MEXILETINE .50 uM,TREATMENT
CIPA001,EG,CIPA001-A-EL1,366,chipA_ch2_MEXI_50uM,INTVL,Heart Rate,64.2035,beats/min,64.2035,64.2035,beats/min,,DERIVED,,ALGORITHM,27,2026-03-22,1,MEXILETINE .50 uM,TREATMENT
CIPA001,EG,CIPA001-A-EL1,367,chipA_ch2_MEXI_50uM,QCGRADE,QC Grade,C,,C,,,,DERIVED,,ALGORITHM,27,2026-03-22,1,MEXILETINE .50 uM,TREATMENT
CIPA001,EG,CIPA001-A-EL1,368,chipA_ch2_MEXI_50uM,FPDCFPC,FPDcF Pct Change,35.6837,%,35.6837,35.6837,%,,DERIVED,,ALGORITHM,27,2026-03-22,1,MEXILETINE .50 uM,TREATMENT
CIPA001,EG,CIPA001-A-EL1,369,chipA_ch2_MEXI_50uM,BPPCT,Beat Period Pct Change,-57.9357,%,-57.9357,-57.9357,%,,DERIVED,,ALGORITHM,27,2026-03-22,1,MEXILETINE .50 uM,TREATMENT
CIPA001,EG,CIPA001-A-EL1,370,chipA_ch2_MEXI_50uM,AMPPCT,Amplitude Pct Change,-80.2982,%,-80.2982,-80.2982,%,,DERIVED,,ALGORITHM,27,2026-03-22,1,MEXILETINE .50 uM,TREATMENT
CIPA001,EG,CIPA001-A-EL1,371,chipA_ch2_MEXI_50uM,TDPSCR,TdP Risk Score,3,SCORE,3,3.0,SCORE,,DERIVED,,ALGORITHM,27,2026-03-22,1,MEXILETINE .50 uM,TREATMENT
CIPA001,EG,CIPA001-A-EL1,372,chipA_ch2_MEXI_50uM,SPECCHG,Spectral Change,0.0930,SCORE,0.0930,0.093,SCORE,,DERIVED,,ALGORITHM,27,2026-03-22,1,MEXILETINE .50 uM,TREATMENT
CIPA001,EG,CIPA001-A-EL1,373,chipA_ch2_MEXI_50uM,RSKSCR,Arrhythmia Risk Score,43,SCORE,43,43.0,SCORE,,DERIVED,,ALGORITHM,27,2026-03-22,1,MEXILETINE .50 uM,TREATMENT
CIPA001,EG,CIPA001-A-EL1,374,chipA_ch2_MEXI_50uM,MORPHIN,Morphology Instability,0.2863,SCORE,0.2863,0.2863,SCORE,,DERIVED,,ALGORITHM,27,2026-03-22,1,MEXILETINE .50 uM,TREATMENT
CIPA001,EG,CIPA001-A-EL1,375,chipA_ch2_MEXI_50uM,EADPCT,EAD Incidence,0.0000,%,0.0000,0.0,%,,DERIVED,,ALGORITHM,27,2026-03-22,1,MEXILETINE .50 uM,TREATMENT
CIPA001,EG,CIPA001-B-EL2,1,chipB_ch3_ALFUSO_1000mM,FPD,FPD,396.4018,ms,396.4018,396.4018,ms,,DERIVED,Y,ALGORITHM,1,2026-03-22,1,ALFUZOSIN .1000 mM,TREATMENT
CIPA001,EG,CIPA001-B-EL2,2,chipB_ch3_ALFUSO_1000mM,FPDCF,FPDcF,399.9055,ms,399.9055,399.9055,ms,,DERIVED,,ALGORITHM,1,2026-03-22,1,ALFUZOSIN .1000 mM,TREATMENT
CIPA001,EG,CIPA001-B-EL2,3,chipB_ch3_ALFUSO_1000mM,BP,Beat Period,1068.4851,ms,1068.4851,1068.4851,ms,,DERIVED,,ALGORITHM,1,2026-03-22,1,ALFUZOSIN .1000 mM,TREATMENT
CIPA001,EG,CIPA001-B-EL2,4,chipB_ch3_ALFUSO_1000mM,SPIKEAM,Spike Amplitude,154.5341,uV,154.5341,154.5341,uV,,DERIVED,,ALGORITHM,1,2026-03-22,1,ALFUZOSIN .1000 mM,TREATMENT
CIPA001,EG,CIPA001-B-EL2,5,chipB_ch3_ALFUSO_1000mM,FPDCONF,FPD Confidence,0.5746,SCORE,0.5746,0.5746,SCORE,,DERIVED,,ALGORITHM,1,2026-03-22,1,ALFUZOSIN .1000 mM,TREATMENT
CIPA001,EG,CIPA001-B-EL2,6,chipB_ch3_ALFUSO_1000mM,INTVL,Heart Rate,56.1543,beats/min,56.1543,56.1543,beats/min,,DERIVED,,ALGORITHM,1,2026-03-22,1,ALFUZOSIN .1000 mM,TREATMENT
CIPA001,EG,CIPA001-B-EL2,7,chipB_ch3_ALFUSO_1000mM,QCGRADE,QC Grade,D,,D,,,,DERIVED,,ALGORITHM,1,2026-03-22,1,ALFUZOSIN .1000 mM,TREATMENT
CIPA001,EG,CIPA001-B-EL2,8,chipB_ch3_ALFUSO_1000mM,RSKSCR,Arrhythmia Risk Score,45,SCORE,45,45.0,SCORE,,DERIVED,,ALGORITHM,1,2026-03-22,1,ALFUZOSIN .1000 mM,TREATMENT
CIPA001,EG,CIPA001-B-EL2,9,chipB_ch3_ALFUSO_1000mM,MORPHIN,Morphology Instability,0.6698,SCORE,0.6698,0.6698,SCORE,,DERIVED,,ALGORITHM,1,2026-03-22,1,ALFUZOSIN .1000 mM,TREATMENT
CIPA001,EG,CIPA001-B-EL2,10,chipB_ch3_ALFUSO_1000mM,EADPCT,EAD Incidence,0.0000,%,0.0000,0.0,%,,DERIVED,,ALGORITHM,1,2026-03-22,1,ALFUZOSIN .1000 mM,TREATMENT
CIPA001,EG,CIPA001-B-EL1,1,chipB_ch3_ALFUSO_100mM,FPD,FPD,350.6618,ms,350.6618,350.6618,ms,,DERIVED,,ALGORITHM,1,2026-03-22,1,ALFUZOSIN .100 mM,TREATMENT
CIPA001,EG,CIPA001-B-EL1,2,chipB_ch3_ALFUSO_100mM,FPDCF,FPDcF,300.5532,ms,300.5532,300.5532,ms,,DERIVED,,ALGORITHM,1,2026-03-22,1,ALFUZOSIN .100 mM,TREATMENT
CIPA001,EG,CIPA001-B-EL1,3,chipB_ch3_ALFUSO_100mM,BP,Beat Period,1737.3058,ms,1737.3058,1737.3058,ms,,DERIVED,,ALGORITHM,1,2026-03-22,1,ALFUZOSIN .100 mM,TREATMENT
CIPA001,EG,CIPA001-B-EL1,4,chipB_ch3_ALFUSO_100mM,SPIKEAM,Spike Amplitude,317.1517,uV,317.1517,317.1517,uV,,DERIVED,,ALGORITHM,1,2026-03-22,1,ALFUZOSIN .100 mM,TREATMENT
CIPA001,EG,CIPA001-B-EL1,5,chipB_ch3_ALFUSO_100mM,FPDCONF,FPD Confidence,0.5963,SCORE,0.5963,0.5963,SCORE,,DERIVED,,ALGORITHM,1,2026-03-22,1,ALFUZOSIN .100 mM,TREATMENT
CIPA001,EG,CIPA001-B-EL1,6,chipB_ch3_ALFUSO_100mM,INTVL,Heart Rate,34.5362,beats/min,34.5362,34.5362,beats/min,,DERIVED,,ALGORITHM,1,2026-03-22,1,ALFUZOSIN .100 mM,TREATMENT
CIPA001,EG,CIPA001-B-EL1,7,chipB_ch3_ALFUSO_100mM,QCGRADE,QC Grade,D,,D,,,,DERIVED,,ALGORITHM,1,2026-03-22,1,ALFUZOSIN .100 mM,TREATMENT
CIPA001,EG,CIPA001-B-EL1,8,chipB_ch3_ALFUSO_100mM,RSKSCR,Arrhythmia Risk Score,44,SCORE,44,44.0,SCORE,,DERIVED,,ALGORITHM,1,2026-03-22,1,ALFUZOSIN .100 mM,TREATMENT
CIPA001,EG,CIPA001-B-EL1,9,chipB_ch3_ALFUSO_100mM,MORPHIN,Morphology Instability,0.2831,SCORE,0.2831,0.2831,SCORE,,DERIVED,,ALGORITHM,1,2026-03-22,1,ALFUZOSIN .100 mM,TREATMENT
CIPA001,EG,CIPA001-B-EL1,10,chipB_ch3_ALFUSO_100mM,EADPCT,EAD Incidence,0.0000,%,0.0000,0.0,%,,DERIVED,,ALGORITHM,1,2026-03-22,1,ALFUZOSIN .100 mM,TREATMENT
CIPA001,EG,CIPA001-B-EL1,11,chipB_ch3_ALFUSO_10mM,FPD,FPD,380.4242,ms,380.4242,380.4242,ms,,DERIVED,,ALGORITHM,2,2026-03-22,1,ALFUZOSIN .10 mM,TREATMENT
CIPA001,EG,CIPA001-B-EL1,12,chipB_ch3_ALFUSO_10mM,FPDCF,FPDcF,367.1917,ms,367.1917,367.1917,ms,,DERIVED,,ALGORITHM,2,2026-03-22,1,ALFUZOSIN .10 mM,TREATMENT
CIPA001,EG,CIPA001-B-EL1,13,chipB_ch3_ALFUSO_10mM,BP,Beat Period,1352.0189,ms,1352.0189,1352.0189,ms,,DERIVED,,ALGORITHM,2,2026-03-22,1,ALFUZOSIN .10 mM,TREATMENT
CIPA001,EG,CIPA001-B-EL1,14,chipB_ch3_ALFUSO_10mM,SPIKEAM,Spike Amplitude,307.9161,uV,307.9161,307.9161,uV,,DERIVED,,ALGORITHM,2,2026-03-22,1,ALFUZOSIN .10 mM,TREATMENT
CIPA001,EG,CIPA001-B-EL1,15,chipB_ch3_ALFUSO_10mM,FPDCONF,FPD Confidence,0.5899,SCORE,0.5899,0.5899,SCORE,,DERIVED,,ALGORITHM,2,2026-03-22,1,ALFUZOSIN .10 mM,TREATMENT
CIPA001,EG,CIPA001-B-EL1,16,chipB_ch3_ALFUSO_10mM,INTVL,Heart Rate,44.3781,beats/min,44.3781,44.3781,beats/min,,DERIVED,,ALGORITHM,2,2026-03-22,1,ALFUZOSIN .10 mM,TREATMENT
CIPA001,EG,CIPA001-B-EL1,17,chipB_ch3_ALFUSO_10mM,QCGRADE,QC Grade,D,,D,,,,DERIVED,,ALGORITHM,2,2026-03-22,1,ALFUZOSIN .10 mM,TREATMENT
CIPA001,EG,CIPA001-B-EL1,18,chipB_ch3_ALFUSO_10mM,RSKSCR,Arrhythmia Risk Score,48,SCORE,48,48.0,SCORE,,DERIVED,,ALGORITHM,2,2026-03-22,1,ALFUZOSIN .10 mM,TREATMENT
CIPA001,EG,CIPA001-B-EL1,19,chipB_ch3_ALFUSO_10mM,MORPHIN,Morphology Instability,0.7355,SCORE,0.7355,0.7355,SCORE,,DERIVED,,ALGORITHM,2,2026-03-22,1,ALFUZOSIN .10 mM,TREATMENT
CIPA001,EG,CIPA001-B-EL1,20,chipB_ch3_ALFUSO_10mM,EADPCT,EAD Incidence,0.0000,%,0.0000,0.0,%,,DERIVED,,ALGORITHM,2,2026-03-22,1,ALFUZOSIN .10 mM,TREATMENT
CIPA001,EG,CIPA001-B-EL1,21,chipB_ch3_ALFUSO_1mM,FPD,FPD,412.4295,ms,412.4295,412.4295,ms,,DERIVED,,ALGORITHM,3,2026-03-22,1,ALFUZOSIN .1 mM,TREATMENT
CIPA001,EG,CIPA001-B-EL1,22,chipB_ch3_ALFUSO_1mM,FPDCF,FPDcF,329.9617,ms,329.9617,329.9617,ms,,DERIVED,,ALGORITHM,3,2026-03-22,1,ALFUZOSIN .1 mM,TREATMENT
CIPA001,EG,CIPA001-B-EL1,23,chipB_ch3_ALFUSO_1mM,BP,Beat Period,2259.1392,ms,2259.1392,2259.1392,ms,,DERIVED,,ALGORITHM,3,2026-03-22,1,ALFUZOSIN .1 mM,TREATMENT
CIPA001,EG,CIPA001-B-EL1,24,chipB_ch3_ALFUSO_1mM,SPIKEAM,Spike Amplitude,181.1877,uV,181.1877,181.1877,uV,,DERIVED,,ALGORITHM,3,2026-03-22,1,ALFUZOSIN .1 mM,TREATMENT
CIPA001,EG,CIPA001-B-EL1,25,chipB_ch3_ALFUSO_1mM,FPDCONF,FPD Confidence,0.6794,SCORE,0.6794,0.6794,SCORE,,DERIVED,,ALGORITHM,3,2026-03-22,1,ALFUZOSIN .1 mM,TREATMENT
CIPA001,EG,CIPA001-B-EL1,26,chipB_ch3_ALFUSO_1mM,INTVL,Heart Rate,26.5588,beats/min,26.5588,26.5588,beats/min,,DERIVED,,ALGORITHM,3,2026-03-22,1,ALFUZOSIN .1 mM,TREATMENT
CIPA001,EG,CIPA001-B-EL1,27,chipB_ch3_ALFUSO_1mM,QCGRADE,QC Grade,D,,D,,,,DERIVED,,ALGORITHM,3,2026-03-22,1,ALFUZOSIN .1 mM,TREATMENT
CIPA001,EG,CIPA001-B-EL1,28,chipB_ch3_ALFUSO_1mM,RSKSCR,Arrhythmia Risk Score,57,SCORE,57,57.0,SCORE,,DERIVED,,ALGORITHM,3,2026-03-22,1,ALFUZOSIN .1 mM,TREATMENT
CIPA001,EG,CIPA001-B-EL1,29,chipB_ch3_ALFUSO_1mM,MORPHIN,Morphology Instability,0.8681,SCORE,0.8681,0.8681,SCORE,,DERIVED,,ALGORITHM,3,2026-03-22,1,ALFUZOSIN .1 mM,TREATMENT
CIPA001,EG,CIPA001-B-EL1,30,chipB_ch3_ALFUSO_1mM,EADPCT,EAD Incidence,0.0000,%,0.0000,0.0,%,,DERIVED,,ALGORITHM,3,2026-03-22,1,ALFUZOSIN .1 mM,TREATMENT
CIPA001,EG,CIPA001-B-EL1,31,chipB_ch3_ALFUSO_30mM,FPD,FPD,681.6703,ms,681.6703,681.6703,ms,,DERIVED,,ALGORITHM,4,2026-03-22,1,ALFUZOSIN .30 mM,TREATMENT
CIPA001,EG,CIPA001-B-EL1,32,chipB_ch3_ALFUSO_30mM,FPDCF,FPDcF,565.2416,ms,565.2416,565.2416,ms,,DERIVED,,ALGORITHM,4,2026-03-22,1,ALFUZOSIN .30 mM,TREATMENT
CIPA001,EG,CIPA001-B-EL1,33,chipB_ch3_ALFUSO_30mM,BP,Beat Period,1943.5326,ms,1943.5326,1943.5326,ms,,DERIVED,,ALGORITHM,4,2026-03-22,1,ALFUZOSIN .30 mM,TREATMENT
CIPA001,EG,CIPA001-B-EL1,34,chipB_ch3_ALFUSO_30mM,SPIKEAM,Spike Amplitude,245.9838,uV,245.9838,245.9838,uV,,DERIVED,,ALGORITHM,4,2026-03-22,1,ALFUZOSIN .30 mM,TREATMENT
CIPA001,EG,CIPA001-B-EL1,35,chipB_ch3_ALFUSO_30mM,FPDCONF,FPD Confidence,0.6402,SCORE,0.6402,0.6402,SCORE,,DERIVED,,ALGORITHM,4,2026-03-22,1,ALFUZOSIN .30 mM,TREATMENT
CIPA001,EG,CIPA001-B-EL1,36,chipB_ch3_ALFUSO_30mM,INTVL,Heart Rate,30.8716,beats/min,30.8716,30.8716,beats/min,,DERIVED,,ALGORITHM,4,2026-03-22,1,ALFUZOSIN .30 mM,TREATMENT
CIPA001,EG,CIPA001-B-EL1,37,chipB_ch3_ALFUSO_30mM,QCGRADE,QC Grade,D,,D,,,,DERIVED,,ALGORITHM,4,2026-03-22,1,ALFUZOSIN .30 mM,TREATMENT
CIPA001,EG,CIPA001-B-EL1,38,chipB_ch3_ALFUSO_30mM,RSKSCR,Arrhythmia Risk Score,38,SCORE,38,38.0,SCORE,,DERIVED,,ALGORITHM,4,2026-03-22,1,ALFUZOSIN .30 mM,TREATMENT
CIPA001,EG,CIPA001-B-EL1,39,chipB_ch3_ALFUSO_30mM,MORPHIN,Morphology Instability,0.3325,SCORE,0.3325,0.3325,SCORE,,DERIVED,,ALGORITHM,4,2026-03-22,1,ALFUZOSIN .30 mM,TREATMENT
CIPA001,EG,CIPA001-B-EL1,40,chipB_ch3_ALFUSO_30mM,EADPCT,EAD Incidence,0.0000,%,0.0000,0.0,%,,DERIVED,,ALGORITHM,4,2026-03-22,1,ALFUZOSIN .30 mM,TREATMENT
CIPA001,EG,CIPA001-B-EL1,41,chipB_ch3_baseline,FPD,FPD,366.3947,ms,366.3947,366.3947,ms,,DERIVED,Y,ALGORITHM,5,2026-03-22,1,BASELINE,BASELINE
CIPA001,EG,CIPA001-B-EL1,42,chipB_ch3_baseline,FPDCF,FPDcF,374.8596,ms,374.8596,374.8596,ms,,DERIVED,Y,ALGORITHM,5,2026-03-22,1,BASELINE,BASELINE
CIPA001,EG,CIPA001-B-EL1,43,chipB_ch3_baseline,BP,Beat Period,1180.7961,ms,1180.7961,1180.7961,ms,,DERIVED,Y,ALGORITHM,5,2026-03-22,1,BASELINE,BASELINE
CIPA001,EG,CIPA001-B-EL1,44,chipB_ch3_baseline,SPIKEAM,Spike Amplitude,213.1214,uV,213.1214,213.1214,uV,,DERIVED,Y,ALGORITHM,5,2026-03-22,1,BASELINE,BASELINE
CIPA001,EG,CIPA001-B-EL1,45,chipB_ch3_baseline,FPDCONF,FPD Confidence,0.6365,SCORE,0.6365,0.6365,SCORE,,DERIVED,Y,ALGORITHM,5,2026-03-22,1,BASELINE,BASELINE
CIPA001,EG,CIPA001-B-EL1,46,chipB_ch3_baseline,INTVL,Heart Rate,50.8132,beats/min,50.8132,50.8132,beats/min,,DERIVED,Y,ALGORITHM,5,2026-03-22,1,BASELINE,BASELINE
CIPA001,EG,CIPA001-B-EL1,47,chipB_ch3_baseline,QCGRADE,QC Grade,D,,D,,,,DERIVED,Y,ALGORITHM,5,2026-03-22,1,BASELINE,BASELINE
CIPA001,EG,CIPA001-B-EL1,48,chipB_ch3_baseline,RSKSCR,Arrhythmia Risk Score,0,SCORE,0,0.0,SCORE,,DERIVED,Y,ALGORITHM,5,2026-03-22,1,BASELINE,BASELINE
CIPA001,EG,CIPA001-B-EL1,49,chipB_ch3_baseline,MORPHIN,Morphology Instability,0.8153,SCORE,0.8153,0.8153,SCORE,,DERIVED,Y,ALGORITHM,5,2026-03-22,1,BASELINE,BASELINE
CIPA001,EG,CIPA001-B-EL1,50,chipB_ch3_baseline,EADPCT,EAD Incidence,0.0000,%,0.0000,0.0,%,,DERIVED,Y,ALGORITHM,5,2026-03-22,1,BASELINE,BASELINE
CIPA001,EG,CIPA001-E-EL1,111,chipE_ch2_DOFE_0_3nM,FPDCFPC,FPDcF Pct Change,5.1988,%,5.1988,5.1988,%,,DERIVED,,ALGORITHM,1,2026-03-22,1,DOFETILIDE .0.3 nM,TREATMENT
CIPA001,EG,CIPA001-E-EL1,112,chipE_ch2_DOFE_0_3nM,BPPCT,Beat Period Pct Change,25.1236,%,25.1236,25.1236,%,,DERIVED,,ALGORITHM,1,2026-03-22,1,DOFETILIDE .0.3 nM,TREATMENT
CIPA001,EG,CIPA001-E-EL1,113,chipE_ch2_DOFE_0_3nM,AMPPCT,Amplitude Pct Change,-48.2588,%,-48.2588,-48.2588,%,,DERIVED,,ALGORITHM,1,2026-03-22,1,DOFETILIDE .0.3 nM,TREATMENT
CIPA001,EG,CIPA001-E-EL1,114,chipE_ch2_DOFE_0_3nM,TDPSCR,TdP Risk Score,0,SCORE,0,0.0,SCORE,,DERIVED,,ALGORITHM,1,2026-03-22,1,DOFETILIDE .0.3 nM,TREATMENT
CIPA001,EG,CIPA001-E-EL1,115,chipE_ch2_DOFE_0_3nM,SPECCHG,Spectral Change,0.2467,SCORE,0.2467,0.2467,SCORE,,DERIVED,,ALGORITHM,1,2026-03-22,1,DOFETILIDE .0.3 nM,TREATMENT
CIPA001,EG,CIPA001-E-EL2,81,chipE_ch2_DOFE_10nM,FPDCFPC,FPDcF Pct Change,-33.8967,%,-33.8967,-33.8967,%,,DERIVED,,ALGORITHM,1,2026-03-22,1,DOFETILIDE .10 nM,TREATMENT
CIPA001,EG,CIPA001-E-EL2,82,chipE_ch2_DOFE_10nM,BPPCT,Beat Period Pct Change,-40.3744,%,-40.3744,-40.3744,%,,DERIVED,,ALGORITHM,1,2026-03-22,1,DOFETILIDE .10 nM,TREATMENT
CIPA001,EG,CIPA001-E-EL2,83,chipE_ch2_DOFE_10nM,AMPPCT,Amplitude Pct Change,-85.1414,%,-85.1414,-85.1414,%,,DERIVED,,ALGORITHM,1,2026-03-22,1,DOFETILIDE .10 nM,TREATMENT
CIPA001,EG,CIPA001-E-EL2,84,chipE_ch2_DOFE_10nM,TDPSCR,TdP Risk Score,-1,SCORE,-1,-1.0,SCORE,,DERIVED,,ALGORITHM,1,2026-03-22,1,DOFETILIDE .10 nM,TREATMENT
CIPA001,EG,CIPA001-E-EL2,85,chipE_ch2_DOFE_10nM,SPECCHG,Spectral Change,0.3175,SCORE,0.3175,0.3175,SCORE,,DERIVED,,ALGORITHM,1,2026-03-22,1,DOFETILIDE .10 nM,TREATMENT
CIPA001,EG,CIPA001-E-EL2,86,chipE_ch2_DOFE_1nM,FPDCFPC,FPDcF Pct Change,37.3580,%,37.3580,37.358,%,,DERIVED,,ALGORITHM,2,2026-03-22,1,DOFETILIDE .1 nM,TREATMENT
CIPA001,EG,CIPA001-E-EL2,87,chipE_ch2_DOFE_1nM,BPPCT,Beat Period Pct Change,-30.0137,%,-30.0137,-30.0137,%,,DERIVED,,ALGORITHM,2,2026-03-22,1,DOFETILIDE .1 nM,TREATMENT
CIPA001,EG,CIPA001-E-EL2,88,chipE_ch2_DOFE_1nM,AMPPCT,Amplitude Pct Change,-93.0281,%,-93.0281,-93.0281,%,,DERIVED,,ALGORITHM,2,2026-03-22,1,DOFETILIDE .1 nM,TREATMENT
CIPA001,EG,CIPA001-E-EL2,89,chipE_ch2_DOFE_1nM,TDPSCR,TdP Risk Score,3,SCORE,3,3.0,SCORE,,DERIVED,,ALGORITHM,2,2026-03-22,1,DOFETILIDE .1 nM,TREATMENT
CIPA001,EG,CIPA001-E-EL2,90,chipE_ch2_DOFE_1nM,SPECCHG,Spectral Change,0.3074,SCORE,0.3074,0.3074,SCORE,,DERIVED,,ALGORITHM,2,2026-03-22,1,DOFETILIDE .1 nM,TREATMENT
CIPA001,EG,CIPA001-E-EL1,116,chipE_ch2_DOFE_2nM,FPD,FPD,446.0571,ms,446.0571,446.0571,ms,,DERIVED,,ALGORITHM,12,2026-03-22,1,DOFETILIDE .2 nM,TREATMENT
CIPA001,EG,CIPA001-E-EL1,117,chipE_ch2_DOFE_2nM,FPDCF,FPDcF,348.0453,ms,348.0453,348.0453,ms,,DERIVED,,ALGORITHM,12,2026-03-22,1,DOFETILIDE .2 nM,TREATMENT
CIPA001,EG,CIPA001-E-EL1,118,chipE_ch2_DOFE_2nM,BP,Beat Period,2551.5643,ms,2551.5643,2551.5643,ms,,DERIVED,,ALGORITHM,12,2026-03-22,1,DOFETILIDE .2 nM,TREATMENT
CIPA001,EG,CIPA001-E-EL1,119,chipE_ch2_DOFE_2nM,SPIKEAM,Spike Amplitude,346.9965,uV,346.9965,346.9965,uV,,DERIVED,,ALGORITHM,12,2026-03-22,1,DOFETILIDE .2 nM,TREATMENT
CIPA001,EG,CIPA001-E-EL1,120,chipE_ch2_DOFE_2nM,FPDCONF,FPD Confidence,0.7175,SCORE,0.7175,0.7175,SCORE,,DERIVED,,ALGORITHM,12,2026-03-22,1,DOFETILIDE .2 nM,TREATMENT
CIPA001,EG,CIPA001-E-EL1,121,chipE_ch2_DOFE_2nM,INTVL,Heart Rate,23.5150,beats/min,23.5150,23.515,beats/min,,DERIVED,,ALGORITHM,12,2026-03-22,1,DOFETILIDE .2 nM,TREATMENT
CIPA001,EG,CIPA001-E-EL1,122,chipE_ch2_DOFE_2nM,QCGRADE,QC Grade,D,,D,,,,DERIVED,,ALGORITHM,12,2026-03-22,1,DOFETILIDE .2 nM,TREATMENT
CIPA001,EG,CIPA001-E-EL1,123,chipE_ch2_DOFE_2nM,FPDCFPC,FPDcF Pct Change,-38.0838,%,-38.0838,-38.0838,%,,DERIVED,,ALGORITHM,12,2026-03-22,1,DOFETILIDE .2 nM,TREATMENT
CIPA001,EG,CIPA001-E-EL1,124,chipE_ch2_DOFE_2nM,BPPCT,Beat Period Pct Change,40.6897,%,40.6897,40.6897,%,,DERIVED,,ALGORITHM,12,2026-03-22,1,DOFETILIDE .2 nM,TREATMENT
CIPA001,EG,CIPA001-E-EL1,125,chipE_ch2_DOFE_2nM,AMPPCT,Amplitude Pct Change,-71.5599,%,-71.5599,-71.5599,%,,DERIVED,,ALGORITHM,12,2026-03-22,1,DOFETILIDE .2 nM,TREATMENT
CIPA001,EG,CIPA001-E-EL1,126,chipE_ch2_DOFE_2nM,TDPSCR,TdP Risk Score,-1,SCORE,-1,-1.0,SCORE,,DERIVED,,ALGORITHM,12,2026-03-22,1,DOFETILIDE .2 nM,TREATMENT
CIPA001,EG,CIPA001-E-EL1,127,chipE_ch2_DOFE_2nM,SPECCHG,Spectral Change,0.4039,SCORE,0.4039,0.4039,SCORE,,DERIVED,,ALGORITHM,12,2026-03-22,1,DOFETILIDE .2 nM,TREATMENT
CIPA001,EG,CIPA001-E-EL1,128,chipE_ch2_DOFE_2nM,RSKSCR,Arrhythmia Risk Score,41,SCORE,41,41.0,SCORE,,DERIVED,,ALGORITHM,12,2026-03-22,1,DOFETILIDE .2 nM,TREATMENT
CIPA001,EG,CIPA001-E-EL1,129,chipE_ch2_DOFE_2nM,MORPHIN,Morphology Instability,0.3069,SCORE,0.3069,0.3069,SCORE,,DERIVED,,ALGORITHM,12,2026-03-22,1,DOFETILIDE .2 nM,TREATMENT
CIPA001,EG,CIPA001-E-EL1,130,chipE_ch2_DOFE_2nM,EADPCT,EAD Incidence,0.0000,%,0.0000,0.0,%,,DERIVED,,ALGORITHM,12,2026-03-22,1,DOFETILIDE .2 nM,TREATMENT
CIPA001,EG,CIPA001-E-EL2,91,chipE_ch2_DOFE_3nM,FPDCFPC,FPDcF Pct Change,-14.7696,%,-14.7696,-14.7696,%,,DERIVED,,ALGORITHM,4,2026-03-22,1,DOFETILIDE .3 nM,TREATMENT
CIPA001,EG,CIPA001-E-EL2,92,chipE_ch2_DOFE_3nM,BPPCT,Beat Period Pct Change,-47.1498,%,-47.1498,-47.1498,%,,DERIVED,,ALGORITHM,4,2026-03-22,1,DOFETILIDE .3 nM,TREATMENT
CIPA001,EG,CIPA001-E-EL2,93,chipE_ch2_DOFE_3nM,AMPPCT,Amplitude Pct Change,-64.5120,%,-64.5120,-64.512,%,,DERIVED,,ALGORITHM,4,2026-03-22,1,DOFETILIDE .3 nM,TREATMENT
CIPA001,EG,CIPA001-E-EL2,94,chipE_ch2_DOFE_3nM,TDPSCR,TdP Risk Score,-1,SCORE,-1,-1.0,SCORE,,DERIVED,,ALGORITHM,4,2026-03-22,1,DOFETILIDE .3 nM,TREATMENT
CIPA001,EG,CIPA001-E-EL2,95,chipE_ch2_DOFE_3nM,SPECCHG,Spectral Change,0.5578,SCORE,0.5578,0.5578,SCORE,,DERIVED,,ALGORITHM,4,2026-03-22,1,DOFETILIDE .3 nM,TREATMENT
CIPA001,EG,CIPA001-E-EL2,96,chipE_ch2_DOFE_6nM,FPD,FPD,390.1335,ms,390.1335,390.1335,ms,,DERIVED,,ALGORITHM,9,2026-03-22,1,DOFETILIDE .6 nM,TREATMENT
CIPA001,EG,CIPA001-E-EL2,97,chipE_ch2_DOFE_6nM,FPDCF,FPDcF,408.8150,ms,408.8150,408.815,ms,,DERIVED,,ALGORITHM,9,2026-03-22,1,DOFETILIDE .6 nM,TREATMENT
CIPA001,EG,CIPA001-E-EL2,98,chipE_ch2_DOFE_6nM,BP,Beat Period,1016.2486,ms,1016.2486,1016.2486,ms,,DERIVED,,ALGORITHM,9,2026-03-22,1,DOFETILIDE .6 nM,TREATMENT
CIPA001,EG,CIPA001-E-EL2,99,chipE_ch2_DOFE_6nM,SPIKEAM,Spike Amplitude,503.0884,uV,503.0884,503.0884,uV,,DERIVED,,ALGORITHM,9,2026-03-22,1,DOFETILIDE .6 nM,TREATMENT
CIPA001,EG,CIPA001-E-EL2,100,chipE_ch2_DOFE_6nM,FPDCONF,FPD Confidence,0.5055,SCORE,0.5055,0.5055,SCORE,,DERIVED,,ALGORITHM,9,2026-03-22,1,DOFETILIDE .6 nM,TREATMENT
CIPA001,EG,CIPA001-E-EL2,101,chipE_ch2_DOFE_6nM,INTVL,Heart Rate,59.0407,beats/min,59.0407,59.0407,beats/min,,DERIVED,,ALGORITHM,9,2026-03-22,1,DOFETILIDE .6 nM,TREATMENT
CIPA001,EG,CIPA001-E-EL2,102,chipE_ch2_DOFE_6nM,QCGRADE,QC Grade,C,,C,,,,DERIVED,,ALGORITHM,9,2026-03-22,1,DOFETILIDE .6 nM,TREATMENT
CIPA001,EG,CIPA001-E-EL2,103,chipE_ch2_DOFE_6nM,FPDCFPC,FPDcF Pct Change,-27.2731,%,-27.2731,-27.2731,%,,DERIVED,,ALGORITHM,9,2026-03-22,1,DOFETILIDE .6 nM,TREATMENT
CIPA001,EG,CIPA001-E-EL2,104,chipE_ch2_DOFE_6nM,BPPCT,Beat Period Pct Change,-43.9655,%,-43.9655,-43.9655,%,,DERIVED,,ALGORITHM,9,2026-03-22,1,DOFETILIDE .6 nM,TREATMENT
CIPA001,EG,CIPA001-E-EL2,105,chipE_ch2_DOFE_6nM,AMPPCT,Amplitude Pct Change,-58.7665,%,-58.7665,-58.7665,%,,DERIVED,,ALGORITHM,9,2026-03-22,1,DOFETILIDE .6 nM,TREATMENT
CIPA001,EG,CIPA001-E-EL2,106,chipE_ch2_DOFE_6nM,TDPSCR,TdP Risk Score,-1,SCORE,-1,-1.0,SCORE,,DERIVED,,ALGORITHM,9,2026-03-22,1,DOFETILIDE .6 nM,TREATMENT
CIPA001,EG,CIPA001-E-EL2,107,chipE_ch2_DOFE_6nM,SPECCHG,Spectral Change,0.6562,SCORE,0.6562,0.6562,SCORE,,DERIVED,,ALGORITHM,9,2026-03-22,1,DOFETILIDE .6 nM,TREATMENT
CIPA001,EG,CIPA001-E-EL2,108,chipE_ch2_DOFE_6nM,RSKSCR,Arrhythmia Risk Score,35,SCORE,35,35.0,SCORE,,DERIVED,,ALGORITHM,9,2026-03-22,1,DOFETILIDE .6 nM,TREATMENT
CIPA001,EG,CIPA001-E-EL2,109,chipE_ch2_DOFE_6nM,MORPHIN,Morphology Instability,0.7114,SCORE,0.7114,0.7114,SCORE,,DERIVED,,ALGORITHM,9,2026-03-22,1,DOFETILIDE .6 nM,TREATMENT
CIPA001,EG,CIPA001-E-EL2,110,chipE_ch2_DOFE_6nM,EADPCT,EAD Incidence,0.0000,%,0.0000,0.0,%,,DERIVED,,ALGORITHM,9,2026-03-22,1,DOFETILIDE .6 nM,TREATMENT
CIPA001,EG,CIPA001-E-EL2,111,chipE_ch2_DOFE_washout_40minutes,FPD,FPD,634.1538,ms,634.1538,634.1538,ms,,DERIVED,,ALGORITHM,10,2026-03-22,1,DOFETILIDE None,TREATMENT
CIPA001,EG,CIPA001-E-EL2,112,chipE_ch2_DOFE_washout_40minutes,FPDCF,FPDcF,646.5302,ms,646.5302,646.5302,ms,,DERIVED,,ALGORITHM,10,2026-03-22,1,DOFETILIDE None,TREATMENT
CIPA001,EG,CIPA001-E-EL2,113,chipE_ch2_DOFE_washout_40minutes,BP,Beat Period,1245.8507,ms,1245.8507,1245.8507,ms,,DERIVED,,ALGORITHM,10,2026-03-22,1,DOFETILIDE None,TREATMENT
CIPA001,EG,CIPA001-E-EL2,114,chipE_ch2_DOFE_washout_40minutes,SPIKEAM,Spike Amplitude,270.3118,uV,270.3118,270.3118,uV,,DERIVED,,ALGORITHM,10,2026-03-22,1,DOFETILIDE None,TREATMENT
CIPA001,EG,CIPA001-E-EL2,115,chipE_ch2_DOFE_washout_40minutes,FPDCONF,FPD Confidence,0.7361,SCORE,0.7361,0.7361,SCORE,,DERIVED,,ALGORITHM,10,2026-03-22,1,DOFETILIDE None,TREATMENT
CIPA001,EG,CIPA001-E-EL2,116,chipE_ch2_DOFE_washout_40minutes,INTVL,Heart Rate,48.1599,beats/min,48.1599,48.1599,beats/min,,DERIVED,,ALGORITHM,10,2026-03-22,1,DOFETILIDE None,TREATMENT
CIPA001,EG,CIPA001-E-EL2,117,chipE_ch2_DOFE_washout_40minutes,QCGRADE,QC Grade,D,,D,,,,DERIVED,,ALGORITHM,10,2026-03-22,1,DOFETILIDE None,TREATMENT
